File: CSV/TIF300_Lab1_spectra_FTIR.csv
x-axis (inverse cm), DICING_transmission_spectrum (percent), PDMS_transmission_spectrum (percent), x-axis (inverse cm), KAPTON_transmission_spectrum (percent), PMMA_transmission_spectrum (percent)
3997.46,1.05711,1.05948,3997.46,1.05769,1.02887
3993.6,1.05757,1.05999,3993.6,1.05788,1.02927
3989.75,1.05734,1.05992,3989.75,1.05758,1.02893
3985.89,1.05727,1.05951,3985.89,1.0574,1.02883
3982.03,1.0573,1.05977,3982.03,1.05749,1.02886
3978.18,1.05711,1.05958,3978.18,1.05738,1.02855
3974.32,1.05694,1.05929,3974.32,1.0569,1.0282
3970.46,1.05713,1.05948,3970.46,1.05718,1.02832
3966.61,1.05699,1.0595,3966.61,1.05749,1.02855
3962.75,1.05676,1.05918,3962.75,1.05715,1.0284
3958.89,1.05701,1.05926,3958.89,1.05689,1.02811
3955.04,1.05717,1.05923,3955.04,1.05693,1.02797
3951.18,1.05668,1.05934,3951.18,1.0568,1.02773
3947.32,1.05666,1.05931,3947.32,1.05658,1.02736
3943.47,1.05656,1.05886,3943.47,1.0565,1.02735
3939.61,1.057,1.05928,3939.61,1.05703,1.02796
3935.75,1.05706,1.05962,3935.75,1.05669,1.02788
3931.9,1.05653,1.05933,3931.9,1.05585,1.02726
3928.04,1.05658,1.05934,3928.04,1.05641,1.02762
3924.18,1.05619,1.05908,3924.18,1.0561,1.02743
3920.33,1.05598,1.05898,3920.33,1.05605,1.02713
3916.47,1.05627,1.0589,3916.47,1.05617,1.02691
3912.61,1.05679,1.05938,3912.61,1.05688,1.02758
3908.76,1.0566,1.05938,3908.76,1.0568,1.02744
3904.9,1.05574,1.05837,3904.9,1.05541,1.02628
3901.04,1.05576,1.05836,3901.04,1.05526,1.02614
3897.19,1.05656,1.05921,3897.19,1.05629,1.02688
3893.33,1.05669,1.05968,3893.33,1.05654,1.02718
3889.47,1.05699,1.05961,3889.47,1.05681,1.02743
3885.62,1.05659,1.05948,3885.62,1.05648,1.02702
3881.76,1.05666,1.05959,3881.76,1.05591,1.02655
3877.9,1.05738,1.05997,3877.9,1.05626,1.02686
3874.05,1.05734,1.06012,3874.05,1.05657,1.02731
3870.19,1.05706,1.05981,3870.19,1.05608,1.0269
3866.33,1.05722,1.06018,3866.33,1.05645,1.02705
3862.48,1.05736,1.06039,3862.48,1.0566,1.02718
3858.62,1.05708,1.0604,3858.62,1.05613,1.02694
3854.76,1.057,1.06046,3854.76,1.05678,1.02771
3850.91,1.05769,1.06017,3850.91,1.05756,1.02795
3847.05,1.05747,1.06029,3847.05,1.05666,1.0272
3843.19,1.05739,1.06046,3843.19,1.05667,1.02721
3839.34,1.05776,1.06109,3839.34,1.05696,1.0278
3835.48,1.05798,1.06113,3835.48,1.05752,1.02821
3831.62,1.05775,1.06056,3831.62,1.05695,1.02756
3827.77,1.05764,1.06033,3827.77,1.05669,1.02727
3823.91,1.05767,1.06058,3823.91,1.0567,1.02732
3820.05,1.05793,1.06084,3820.05,1.05734,1.02781
3816.2,1.05751,1.06066,3816.2,1.05725,1.02763
3812.34,1.05696,1.05999,3812.34,1.05671,1.0271
3808.48,1.05722,1.06004,3808.48,1.05678,1.02726
3804.63,1.05765,1.0605,3804.63,1.05727,1.02758
3800.77,1.05764,1.06042,3800.77,1.05746,1.02758
3796.91,1.05698,1.05979,3796.91,1.05697,1.02682
3793.06,1.05645,1.05917,3793.06,1.0566,1.02642
3789.2,1.05616,1.05862,3789.2,1.05634,1.02612
3785.34,1.05604,1.05844,3785.34,1.05622,1.02604
3781.49,1.05638,1.05861,3781.49,1.05665,1.02639
3777.63,1.05644,1.05863,3777.63,1.05675,1.0262
3773.77,1.05605,1.05843,3773.77,1.05626,1.02574
3769.92,1.05624,1.05843,3769.92,1.05609,1.02576
3766.06,1.05623,1.05863,3766.06,1.05623,1.02554
3762.2,1.05641,1.05872,3762.2,1.05635,1.02556
3758.35,1.05664,1.05904,3758.35,1.05607,1.0256
3754.49,1.05696,1.05947,3754.49,1.05566,1.02572
3750.63,1.05809,1.06065,3750.63,1.05632,1.02664
3746.78,1.05757,1.06066,3746.78,1.0555,1.02552
3742.92,1.05678,1.05932,3742.92,1.05548,1.02483
3739.06,1.05559,1.05814,3739.06,1.05519,1.02438
3735.21,1.05476,1.05745,3735.21,1.05471,1.02405
3731.35,1.05626,1.0584,3731.35,1.05692,1.02582
3727.49,1.05625,1.05883,3727.49,1.05455,1.02443
3723.64,1.05608,1.05882,3723.64,1.05356,1.02377
3719.78,1.05636,1.05889,3719.78,1.0543,1.0242
3715.92,1.05575,1.05809,3715.92,1.0549,1.02436
3712.07,1.05578,1.05777,3712.07,1.05558,1.02485
3708.21,1.05615,1.05798,3708.21,1.05582,1.02482
3704.35,1.05476,1.05681,3704.35,1.05578,1.02421
3700.5,1.05492,1.05677,3700.5,1.05574,1.02421
3696.64,1.05558,1.05736,3696.64,1.05501,1.02409
3692.78,1.05558,1.05783,3692.78,1.05459,1.02384
3688.93,1.0555,1.0575,3688.93,1.05563,1.0241
3685.07,1.05545,1.05738,3685.07,1.05491,1.02309
3681.21,1.0555,1.05761,3681.21,1.05412,1.02225
3677.36,1.05541,1.0579,3677.36,1.05406,1.02194
3673.5,1.05535,1.05782,3673.5,1.05441,1.02108
3669.64,1.05501,1.05729,3669.64,1.05445,1.01996
3665.79,1.05535,1.05738,3665.79,1.05454,1.0191
3661.93,1.05508,1.05704,3661.93,1.05376,1.01791
3658.07,1.05462,1.05667,3658.07,1.0533,1.01668
3654.22,1.05454,1.05644,3654.22,1.05336,1.01583
3650.36,1.0541,1.05614,3650.36,1.05257,1.01487
3646.5,1.0546,1.05628,3646.5,1.05194,1.01388
3642.65,1.05433,1.05619,3642.65,1.05215,1.01353
3638.79,1.05438,1.05618,3638.79,1.05278,1.01364
3634.93,1.05458,1.05628,3634.93,1.05272,1.01329
3631.08,1.05384,1.05589,3631.08,1.05211,1.01286
3627.22,1.0541,1.05604,3627.22,1.05217,1.01312
3623.36,1.05415,1.05621,3623.36,1.05239,1.01319
3619.51,1.05314,1.05534,3619.51,1.0526,1.01288
3615.65,1.05375,1.056,3615.65,1.05166,1.01252
3611.79,1.05372,1.05596,3611.79,1.05098,1.01265
3607.94,1.05379,1.05604,3607.94,1.05098,1.01269
3604.08,1.05427,1.05655,3604.08,1.05202,1.01304
3600.22,1.05436,1.05678,3600.22,1.05228,1.01348
3596.37,1.05426,1.05672,3596.37,1.05193,1.01333
3592.51,1.05436,1.05656,3592.51,1.0515,1.01314
3588.65,1.05305,1.05554,3588.65,1.05025,1.01211
3584.8,1.05353,1.0561,3584.8,1.05108,1.01262
3580.94,1.05397,1.0565,3580.94,1.05202,1.01316
3577.08,1.05395,1.05638,3577.08,1.05182,1.01271
3573.23,1.05398,1.05658,3573.23,1.05154,1.01228
3569.37,1.0523,1.05528,3569.37,1.04932,1.0103
3565.51,1.05216,1.05536,3565.51,1.0486,1.00985
3561.66,1.05327,1.05627,3561.66,1.04998,1.01085
3557.8,1.05335,1.05638,3557.8,1.05028,1.01095
3553.94,1.05327,1.05629,3553.94,1.05028,1.01087
3550.09,1.0532,1.05617,3550.09,1.05023,1.01099
3546.23,1.05264,1.05562,3546.23,1.0498,1.01057
3542.37,1.05333,1.05617,3542.37,1.05103,1.01169
3538.52,1.0533,1.05625,3538.52,1.051,1.01164
3534.66,1.05322,1.05611,3534.66,1.05096,1.01146
3530.8,1.0535,1.0564,3530.8,1.05152,1.01181
3526.95,1.05312,1.05582,3526.95,1.05086,1.01101
3523.09,1.05277,1.05555,3523.09,1.05055,1.01037
3519.23,1.0529,1.05589,3519.23,1.05141,1.01058
3515.38,1.05291,1.05588,3515.38,1.05134,1.01036
3511.52,1.05308,1.056,3511.52,1.05132,1.00978
3507.66,1.0531,1.05592,3507.66,1.05122,1.00886
3503.8,1.05247,1.0556,3503.8,1.05082,1.00783
3499.95,1.05269,1.05584,3499.95,1.05101,1.00707
3496.09,1.05292,1.05624,3496.09,1.05158,1.00625
3492.23,1.05283,1.0562,3492.23,1.05175,1.00512
3488.38,1.0527,1.05601,3488.38,1.05158,1.00395
3484.52,1.05259,1.05598,3484.52,1.05121,1.00406
3480.66,1.05223,1.05579,3480.66,1.05077,1.00424
3476.81,1.05242,1.05608,3476.81,1.05079,1.0049
3472.95,1.05229,1.05592,3472.95,1.0505,1.00573
3469.09,1.05258,1.05593,3469.09,1.05079,1.00717
3465.24,1.05245,1.05596,3465.24,1.05001,1.00738
3461.38,1.05264,1.05615,3461.38,1.04972,1.00777
3457.52,1.05234,1.05634,3457.52,1.04898,1.00794
3453.67,1.05222,1.0563,3453.67,1.04837,1.00812
3449.81,1.05231,1.05627,3449.81,1.04803,1.00797
3445.95,1.05199,1.05599,3445.95,1.04683,1.00738
3442.1,1.05222,1.056,3442.1,1.04618,1.00727
3438.24,1.05245,1.05613,3438.24,1.04638,1.00814
3434.38,1.05259,1.05623,3434.38,1.04558,1.00842
3430.53,1.05283,1.05636,3430.53,1.04448,1.00791
3426.67,1.05285,1.05629,3426.67,1.04469,1.00714
3422.81,1.05292,1.05609,3422.81,1.04544,1.00631
3418.96,1.05293,1.0561,3418.96,1.04672,1.00612
3415.1,1.05284,1.05567,3415.1,1.04754,1.00609
3411.24,1.05337,1.05602,3411.24,1.04887,1.00659
3407.39,1.05353,1.05618,3407.39,1.04972,1.00643
3403.53,1.0534,1.0561,3403.53,1.05005,1.00664
3399.67,1.05392,1.05644,3399.67,1.05041,1.00706
3395.82,1.05397,1.05646,3395.82,1.05014,1.00602
3391.96,1.05345,1.05614,3391.96,1.04999,1.00607
3388.1,1.05364,1.056,3388.1,1.05003,1.00553
3384.25,1.05381,1.05612,3384.25,1.0502,1.00527
3380.39,1.05362,1.05584,3380.39,1.05009,1.00506
3376.53,1.0537,1.05605,3376.53,1.05018,1.00519
3372.68,1.05409,1.05644,3372.68,1.05077,1.00553
3368.82,1.05384,1.05605,3368.82,1.05069,1.00602
3364.96,1.05363,1.0558,3364.96,1.05025,1.00556
3361.11,1.05368,1.05608,3361.11,1.05039,1.00548
3357.25,1.05377,1.05598,3357.25,1.05046,1.00529
3353.39,1.05353,1.05574,3353.39,1.05041,1.00572
3349.54,1.05363,1.05567,3349.54,1.05042,1.00619
3345.68,1.05358,1.05593,3345.68,1.05052,1.00583
3341.82,1.05362,1.05595,3341.82,1.05016,1.00601
3337.97,1.0537,1.05592,3337.97,1.05014,1.0063
3334.11,1.05354,1.05597,3334.11,1.05003,1.00616
3330.25,1.05375,1.05609,3330.25,1.05046,1.00638
3326.4,1.05382,1.05596,3326.4,1.05062,1.00664
3322.54,1.05403,1.05611,3322.54,1.05104,1.0069
3318.68,1.05383,1.05597,3318.68,1.05083,1.00666
3314.83,1.05344,1.05561,3314.83,1.05055,1.00648
3310.97,1.05365,1.05559,3310.97,1.05047,1.00698
3307.11,1.05367,1.05563,3307.11,1.05059,1.00749
3303.26,1.05361,1.05552,3303.26,1.05046,1.00746
3299.4,1.05367,1.05552,3299.4,1.05044,1.00719
3295.54,1.05355,1.0554,3295.54,1.0503,1.00731
3291.69,1.05367,1.05515,3291.69,1.05018,1.00749
3287.83,1.05362,1.05512,3287.83,1.04996,1.00757
3283.97,1.05337,1.05513,3283.97,1.05011,1.00781
3280.12,1.05318,1.05526,3280.12,1.05031,1.00822
3276.26,1.05324,1.05512,3276.26,1.05028,1.00822
3272.4,1.05346,1.0549,3272.4,1.05033,1.00836
3268.55,1.05339,1.05481,3268.55,1.05018,1.00848
3264.69,1.05306,1.05486,3264.69,1.05005,1.00814
3260.83,1.05296,1.05453,3260.83,1.04971,1.00808
3256.98,1.05299,1.05464,3256.98,1.04985,1.00829
3253.12,1.05317,1.05469,3253.12,1.04988,1.00835
3249.26,1.0532,1.05474,3249.26,1.04992,1.00854
3245.41,1.05316,1.05447,3245.41,1.04986,1.00857
3241.55,1.05277,1.05414,3241.55,1.04948,1.00851
3237.69,1.05242,1.05414,3237.69,1.04937,1.00858
3233.84,1.05217,1.05371,3233.84,1.04926,1.0085
3229.98,1.05214,1.05355,3229.98,1.04908,1.00808
3226.12,1.05225,1.05352,3226.12,1.04916,1.00814
3222.27,1.05212,1.05329,3222.27,1.04922,1.00813
3218.41,1.05208,1.0532,3218.41,1.04956,1.00801
3214.55,1.05234,1.05332,3214.55,1.04944,1.00791
3210.7,1.0525,1.05365,3210.7,1.04964,1.00842
3206.84,1.05287,1.05399,3206.84,1.04981,1.00877
3202.98,1.05315,1.05428,3202.98,1.05017,1.00903
3199.13,1.05307,1.05415,3199.13,1.05026,1.00878
3195.27,1.05329,1.05412,3195.27,1.05034,1.00894
3191.41,1.05334,1.05428,3191.41,1.05046,1.00922
3187.56,1.05341,1.05455,3187.56,1.05061,1.00934
3183.7,1.05341,1.05461,3183.7,1.05072,1.00916
3179.84,1.05369,1.05472,3179.84,1.05081,1.00937
3175.99,1.05377,1.05481,3175.99,1.05109,1.00978
3172.13,1.0535,1.05435,3172.13,1.05111,1.0095
3168.27,1.05371,1.05435,3168.27,1.05099,1.00946
3164.42,1.05384,1.05461,3164.42,1.051,1.00982
3160.56,1.05388,1.05456,3160.56,1.05106,1.00984
3156.7,1.05367,1.05453,3156.7,1.05093,1.00956
3152.85,1.05379,1.05466,3152.85,1.05103,1.00968
3148.99,1.05369,1.05468,3148.99,1.05131,1.00967
3145.13,1.05382,1.05446,3145.13,1.05126,1.00932
3141.28,1.05386,1.05431,3141.28,1.05117,1.00903
3137.42,1.0541,1.05461,3137.42,1.05114,1.00872
3133.56,1.05431,1.05486,3133.56,1.05119,1.00839
3129.71,1.05418,1.05473,3129.71,1.05114,1.00785
3125.85,1.05435,1.05496,3125.85,1.05141,1.00701
3121.99,1.05449,1.0549,3121.99,1.05152,1.00595
3118.14,1.05438,1.05479,3118.14,1.05137,1.00468
3114.28,1.05473,1.05497,3114.28,1.05143,1.00366
3110.42,1.05475,1.05505,3110.42,1.05126,1.00259
3106.57,1.0549,1.0553,3106.57,1.05116,1.00169
3102.71,1.05501,1.05557,3102.71,1.05096,1.00033
3098.85,1.05519,1.05567,3098.85,1.05126,0.99861
3095,1.05507,1.05568,3095,1.0517,0.99717
3091.14,1.05536,1.0559,3091.14,1.05205,0.99742
3087.28,1.05537,1.056,3087.28,1.05179,0.9981
3083.43,1.055,1.05591,3083.43,1.05121,0.99847
3079.57,1.05491,1.05589,3079.57,1.05114,0.99857
3075.71,1.05504,1.0559,3075.71,1.05126,0.99839
3071.86,1.0549,1.05584,3071.86,1.05116,0.99822
3068,1.05499,1.05594,3068,1.05109,0.99864
3064.14,1.05531,1.05581,3064.14,1.05127,0.99928
3060.29,1.0554,1.05553,3060.29,1.05127,0.99985
3056.43,1.05506,1.05553,3056.43,1.05059,0.99979
3052.57,1.05484,1.05545,3052.57,1.05048,0.9998
3048.72,1.05473,1.05544,3048.72,1.05141,1.00021
3044.86,1.05451,1.05544,3044.86,1.05235,1.00086
3041,1.05454,1.05524,3041,1.05243,1.00105
3037.15,1.0544,1.0553,3037.15,1.05239,1.0014
3033.29,1.05454,1.05572,3033.29,1.05251,1.00245
3029.43,1.05435,1.05552,3029.43,1.05175,1.00328
3025.58,1.05377,1.05497,3025.58,1.05055,1.00478
3021.72,1.05324,1.05474,3021.72,1.0491,1.00618
3017.86,1.05296,1.05451,3017.86,1.04677,1.00729
3014.01,1.05252,1.05433,3014.01,1.04495,1.00809
3010.15,1.05188,1.05392,3010.15,1.04435,1.00792
3006.29,1.05103,1.05353,3006.29,1.04378,1.00705
3002.43,1.04999,1.05295,3002.43,1.04299,1.00682
2998.58,1.04848,1.0521,2998.58,1.04214,1.00666
2994.72,1.04599,1.05066,2994.72,1.0407,1.00642
2990.86,1.04263,1.04863,2990.86,1.03918,1.00621
2987.01,1.03816,1.04557,2987.01,1.03773,1.00565
2983.15,1.03215,1.04078,2983.15,1.03586,1.00558
2979.29,1.02418,1.03321,2979.29,1.0333,1.0052
2975.44,1.01464,1.0206,2975.44,1.02983,1.00414
2971.58,1.00289,1.00054,2971.58,1.02545,1.00216
2967.72,0.99028,0.9749,2967.72,1.02446,0.99994
2963.87,0.98071,0.95384,2963.87,1.02605,0.99725
2960.01,0.98017,0.95625,2960.01,1.02836,0.99584
2956.15,0.98742,0.98205,2956.15,1.03084,0.99517
2952.3,0.99676,1.0095,2952.3,1.03358,0.99416
2948.44,1.00439,1.02799,2948.44,1.03704,0.99247
2944.58,1.00751,1.03828,2944.58,1.04038,0.99024
2940.73,1.00627,1.04397,2940.73,1.04324,0.98774
2936.87,1.0029,1.04767,2936.87,1.04548,0.98544
2933.01,0.99986,1.05022,2933.01,1.0473,0.98325
2929.16,0.99895,1.05164,2929.16,1.04807,0.98181
2925.3,1.00007,1.05228,2925.3,1.04868,0.98118
2921.44,1.00148,1.05141,2921.44,1.04824,0.98114
2917.59,1.00188,1.04939,2917.59,1.04656,0.98251
2913.73,1.00245,1.04708,2913.73,1.04476,0.98578
2909.87,1.00453,1.044,2909.87,1.04231,0.98898
2906.02,1.00817,1.04121,2906.02,1.04127,0.99122
2902.16,1.01436,1.04135,2902.16,1.0433,0.99315
2898.3,1.02143,1.04421,2898.3,1.04544,0.99481
2894.45,1.02727,1.04709,2894.45,1.04636,0.99623
2890.59,1.03128,1.04932,2890.59,1.04655,0.99783
2886.73,1.03366,1.0507,2886.73,1.04685,0.9994
2882.88,1.03383,1.05169,2882.88,1.04732,1.00054
2879.02,1.03164,1.05214,2879.02,1.04775,1.00092
2875.16,1.02922,1.05335,2875.16,1.04869,1.00118
2871.31,1.02859,1.05413,2871.31,1.04932,1.00073
2867.45,1.02982,1.05455,2867.45,1.0499,0.9994
2863.59,1.03031,1.05531,2863.59,1.05082,0.99793
2859.74,1.02993,1.05591,2859.74,1.05153,0.99634
2855.88,1.03131,1.05636,2855.88,1.0521,0.99503
2852.02,1.03485,1.05632,2852.02,1.05238,0.9945
2848.17,1.0389,1.05597,2848.17,1.05239,0.99591
2844.31,1.0428,1.05565,2844.31,1.05263,1.00012
2840.45,1.04597,1.0554,2840.45,1.05259,1.0039
2836.6,1.04833,1.05518,2836.6,1.05263,1.00643
2832.74,1.04989,1.05522,2832.74,1.05284,1.0082
2828.88,1.05107,1.05523,2828.88,1.05321,1.00947
2825.03,1.05134,1.05514,2825.03,1.05316,1.01037
2821.17,1.05102,1.05508,2821.17,1.05316,1.01097
2817.31,1.05094,1.055,2817.31,1.05311,1.01128
2813.46,1.05162,1.05497,2813.46,1.05323,1.01153
2809.6,1.05261,1.05492,2809.6,1.05331,1.01164
2805.74,1.05328,1.05486,2805.74,1.05345,1.01161
2801.89,1.05358,1.0547,2801.89,1.05346,1.01149
2798.03,1.05383,1.05475,2798.03,1.05374,1.01156
2794.17,1.05413,1.0549,2794.17,1.05387,1.01135
2790.32,1.05461,1.05524,2790.32,1.05413,1.01112
2786.46,1.05482,1.05569,2786.46,1.05437,1.01078
2782.6,1.05493,1.05589,2782.6,1.05441,1.01022
2778.75,1.05502,1.0562,2778.75,1.05454,1.01006
2774.89,1.05506,1.05636,2774.89,1.05445,1.01038
2771.03,1.05533,1.05668,2771.03,1.05445,1.01093
2767.18,1.05534,1.05693,2767.18,1.05452,1.01142
2763.32,1.05523,1.05695,2763.32,1.05459,1.01167
2759.46,1.05522,1.057,2759.46,1.05461,1.01193
2755.61,1.05516,1.05689,2755.61,1.0545,1.01201
2751.75,1.05514,1.05696,2751.75,1.05452,1.01219
2747.89,1.05506,1.05715,2747.89,1.05448,1.01225
2744.04,1.05497,1.05719,2744.04,1.05444,1.01213
2740.18,1.05484,1.05711,2740.18,1.05449,1.01221
2736.32,1.05508,1.05711,2736.32,1.05489,1.01248
2732.47,1.05502,1.05698,2732.47,1.0551,1.01249
2728.61,1.05515,1.05735,2728.61,1.05513,1.01265
2724.75,1.05531,1.05742,2724.75,1.05529,1.01287
2720.9,1.05528,1.05728,2720.9,1.05528,1.01295
2717.04,1.05522,1.05712,2717.04,1.0553,1.01284
2713.18,1.05555,1.05721,2713.18,1.05533,1.01315
2709.33,1.05548,1.05725,2709.33,1.05538,1.01317
2705.47,1.05542,1.05727,2705.47,1.05562,1.01334
2701.61,1.05537,1.05722,2701.61,1.05557,1.01353
2697.76,1.05536,1.05715,2697.76,1.05545,1.01355
2693.9,1.0554,1.0572,2693.9,1.05544,1.01363
2690.04,1.05542,1.05732,2690.04,1.05527,1.01389
2686.19,1.05546,1.05727,2686.19,1.05521,1.01405
2682.33,1.05559,1.05725,2682.33,1.0553,1.01397
2678.47,1.05539,1.05717,2678.47,1.05544,1.01399
2674.62,1.05547,1.05724,2674.62,1.05557,1.01419
2670.76,1.05557,1.0571,2670.76,1.05569,1.0141
2666.9,1.05558,1.05703,2666.9,1.05567,1.01407
2663.05,1.05555,1.057,2663.05,1.05572,1.014
2659.19,1.05555,1.05696,2659.19,1.05577,1.01416
2655.33,1.05558,1.05694,2655.33,1.05565,1.01435
2651.48,1.05565,1.05712,2651.48,1.05573,1.0145
2647.62,1.05561,1.05721,2647.62,1.05586,1.01451
2643.76,1.05554,1.0572,2643.76,1.05569,1.01463
2639.91,1.05553,1.05721,2639.91,1.05551,1.01481
2636.05,1.05568,1.05733,2636.05,1.05543,1.01478
2632.19,1.05574,1.05752,2632.19,1.05531,1.01469
2628.34,1.05577,1.05749,2628.34,1.05524,1.01469
2624.48,1.05571,1.05752,2624.48,1.05522,1.01464
2620.62,1.05574,1.05751,2620.62,1.05524,1.01456
2616.77,1.05578,1.05748,2616.77,1.0552,1.01461
2612.91,1.05586,1.05738,2612.91,1.05525,1.01458
2609.05,1.0559,1.05762,2609.05,1.05538,1.01448
2605.2,1.05574,1.05748,2605.2,1.05517,1.01421
2601.34,1.05581,1.05748,2601.34,1.05507,1.01391
2597.48,1.05573,1.05757,2597.48,1.05496,1.01387
2593.63,1.05587,1.05764,2593.63,1.05478,1.0138
2589.77,1.05585,1.05748,2589.77,1.05453,1.01336
2585.91,1.05591,1.05757,2585.91,1.05458,1.01329
2582.06,1.056,1.05758,2582.06,1.05455,1.01355
2578.2,1.05596,1.0575,2578.2,1.05454,1.01364
2574.34,1.05607,1.05768,2574.34,1.0546,1.01389
2570.49,1.05586,1.05766,2570.49,1.05457,1.01404
2566.63,1.05589,1.05763,2566.63,1.05453,1.01432
2562.77,1.05592,1.05767,2562.77,1.05458,1.0145
2558.92,1.05591,1.05774,2558.92,1.0546,1.01459
2555.06,1.05601,1.05773,2555.06,1.05461,1.01444
2551.2,1.05621,1.05772,2551.2,1.05457,1.01453
2547.35,1.0563,1.05775,2547.35,1.05458,1.01471
2543.49,1.05613,1.05767,2543.49,1.05442,1.01441
2539.63,1.05618,1.05768,2539.63,1.05457,1.01411
2535.78,1.05602,1.05753,2535.78,1.05448,1.01378
2531.92,1.05605,1.05739,2531.92,1.05446,1.01368
2528.06,1.05632,1.05751,2528.06,1.05474,1.01346
2524.21,1.05622,1.05737,2524.21,1.05479,1.01304
2520.35,1.05616,1.05723,2520.35,1.05482,1.01258
2516.49,1.05632,1.05732,2516.49,1.05513,1.01219
2512.64,1.05637,1.05727,2512.64,1.05519,1.01178
2508.78,1.05638,1.05711,2508.78,1.05523,1.01154
2504.92,1.05644,1.05702,2504.92,1.05524,1.01155
2501.06,1.0564,1.05674,2501.06,1.05542,1.01155
2497.21,1.05643,1.05676,2497.21,1.05546,1.01173
2493.35,1.05641,1.05694,2493.35,1.05553,1.01178
2489.49,1.05646,1.05704,2489.49,1.05549,1.01184
2485.64,1.0566,1.05743,2485.64,1.05584,1.01209
2481.78,1.05656,1.05752,2481.78,1.05596,1.01228
2477.92,1.05655,1.05733,2477.92,1.05589,1.01233
2474.07,1.05666,1.05747,2474.07,1.05614,1.01251
2470.21,1.05678,1.05756,2470.21,1.05631,1.01271
2466.35,1.05681,1.05758,2466.35,1.05635,1.01291
2462.5,1.05681,1.05767,2462.5,1.05644,1.01312
2458.64,1.05677,1.05766,2458.64,1.05656,1.01326
2454.78,1.05678,1.05755,2454.78,1.0566,1.0132
2450.93,1.05684,1.05763,2450.93,1.05666,1.01321
2447.07,1.05685,1.05752,2447.07,1.0566,1.013
2443.21,1.05674,1.05744,2443.21,1.05653,1.01302
2439.36,1.05669,1.05735,2439.36,1.05641,1.01307
2435.5,1.05662,1.05736,2435.5,1.0564,1.01328
2431.64,1.05683,1.05753,2431.64,1.05632,1.01364
2427.79,1.05667,1.0577,2427.79,1.05615,1.01403
2423.93,1.05653,1.05731,2423.93,1.05594,1.0142
2420.07,1.05658,1.05741,2420.07,1.05587,1.01438
2416.22,1.05667,1.05755,2416.22,1.05603,1.01462
2412.36,1.05654,1.0575,2412.36,1.05575,1.0144
2408.5,1.05632,1.05736,2408.5,1.05554,1.01416
2404.65,1.05639,1.05733,2404.65,1.05534,1.0142
2400.79,1.05636,1.0573,2400.79,1.05521,1.01417
2396.93,1.05664,1.05751,2396.93,1.05496,1.01428
2393.08,1.05615,1.05678,2393.08,1.05572,1.01475
2389.22,1.05532,1.05575,2389.22,1.05636,1.01504
2385.36,1.0542,1.05428,2385.36,1.05653,1.01513
2381.51,1.05301,1.05302,2381.51,1.05484,1.01395
2377.65,1.05288,1.05332,2377.65,1.0526,1.01256
2373.79,1.05288,1.05343,2373.79,1.05415,1.01339
2369.94,1.05323,1.05371,2369.94,1.0569,1.01545
2366.08,1.05544,1.05605,2366.08,1.058,1.01709
2362.22,1.0581,1.05885,2362.22,1.05829,1.01846
2358.37,1.05882,1.05966,2358.37,1.05759,1.0182
2354.51,1.05803,1.05945,2354.51,1.05413,1.01582
2350.65,1.0598,1.05957,2350.65,1.05335,1.01616
2346.8,1.05891,1.05984,2346.8,1.05265,1.01546
2342.94,1.05841,1.06027,2342.94,1.05495,1.01647
2339.08,1.06007,1.06108,2339.08,1.05653,1.01817
2335.23,1.05969,1.06066,2335.23,1.0562,1.0176
2331.37,1.05873,1.06004,2331.37,1.05383,1.01588
2327.51,1.05807,1.05957,2327.51,1.0516,1.01457
2323.66,1.05695,1.05848,2323.66,1.05044,1.0135
2319.8,1.05567,1.0572,2319.8,1.05041,1.01291
2315.94,1.05583,1.05721,2315.94,1.05045,1.01292
2312.09,1.05565,1.05716,2312.09,1.0495,1.01229
2308.23,1.05535,1.05673,2308.23,1.05008,1.0127
2304.37,1.05511,1.05646,2304.37,1.0516,1.01366
2300.52,1.05506,1.05638,2300.52,1.05247,1.01427
2296.66,1.05527,1.05676,2296.66,1.05305,1.0148
2292.8,1.05529,1.05685,2292.8,1.05314,1.01505
2288.95,1.05536,1.05685,2288.95,1.05322,1.01524
2285.09,1.0553,1.05677,2285.09,1.05346,1.01528
2281.23,1.05526,1.05676,2281.23,1.05375,1.01542
2277.38,1.0552,1.05666,2277.38,1.05414,1.01558
2273.52,1.05495,1.05638,2273.52,1.05435,1.01575
2269.66,1.05484,1.05615,2269.66,1.05433,1.016
2265.81,1.05479,1.05594,2265.81,1.05412,1.01619
2261.95,1.0548,1.05608,2261.95,1.05414,1.01666
2258.09,1.05489,1.05622,2258.09,1.05432,1.01705
2254.24,1.05479,1.05618,2254.24,1.05396,1.01701
2250.38,1.05478,1.05612,2250.38,1.05374,1.01683
2246.52,1.05515,1.05669,2246.52,1.05326,1.01662
2242.67,1.05474,1.05629,2242.67,1.05404,1.01689
2238.81,1.05435,1.05592,2238.81,1.05437,1.01694
2234.95,1.05413,1.05564,2234.95,1.05474,1.01704
2231.1,1.05403,1.05545,2231.1,1.05483,1.01716
2227.24,1.0539,1.05525,2227.24,1.05495,1.01712
2223.38,1.05394,1.05527,2223.38,1.05516,1.01716
2219.53,1.05374,1.05512,2219.53,1.05509,1.01693
2215.67,1.0536,1.05501,2215.67,1.0552,1.01684
2211.81,1.05361,1.055,2211.81,1.05533,1.01681
2207.96,1.05349,1.05484,2207.96,1.05531,1.01691
2204.1,1.05333,1.05476,2204.1,1.05537,1.01705
2200.24,1.05336,1.05473,2200.24,1.05552,1.01738
2196.39,1.05329,1.05472,2196.39,1.05564,1.0177
2192.53,1.05305,1.05454,2192.53,1.05557,1.01769
2188.67,1.05287,1.05443,2188.67,1.05554,1.0179
2184.82,1.05262,1.05426,2184.82,1.05535,1.01801
2180.96,1.05238,1.0542,2180.96,1.0553,1.01816
2177.1,1.0524,1.05404,2177.1,1.05522,1.01848
2173.25,1.05229,1.05379,2173.25,1.05511,1.01877
2169.39,1.05232,1.05364,2169.39,1.05496,1.01909
2165.53,1.05238,1.05353,2165.53,1.05481,1.01919
2161.68,1.05253,1.05338,2161.68,1.05468,1.01934
2157.82,1.05259,1.05308,2157.82,1.05439,1.01927
2153.96,1.05253,1.05291,2153.96,1.05407,1.01922
2150.11,1.05271,1.053,2150.11,1.05401,1.01943
2146.25,1.0527,1.05301,2146.25,1.05373,1.01941
2142.39,1.05278,1.05301,2142.39,1.0536,1.01951
2138.54,1.05274,1.05312,2138.54,1.05339,1.01938
2134.68,1.05282,1.05332,2134.68,1.05338,1.01933
2130.82,1.05287,1.05353,2130.82,1.05325,1.01935
2126.97,1.05285,1.05349,2126.97,1.05304,1.01932
2123.11,1.05281,1.05343,2123.11,1.05277,1.01936
2119.25,1.05283,1.05345,2119.25,1.05262,1.01931
2115.4,1.05266,1.05347,2115.4,1.05252,1.01935
2111.54,1.05272,1.05357,2111.54,1.05249,1.01947
2107.68,1.05253,1.05348,2107.68,1.05236,1.01938
2103.83,1.05255,1.05345,2103.83,1.05255,1.01946
2099.97,1.05268,1.05345,2099.97,1.05261,1.01959
2096.11,1.05271,1.05348,2096.11,1.05256,1.01956
2092.26,1.05264,1.05343,2092.26,1.05273,1.01967
2088.4,1.0525,1.05336,2088.4,1.05269,1.01948
2084.54,1.05254,1.05331,2084.54,1.05315,1.01957
2080.69,1.05255,1.0533,2080.69,1.05332,1.0196
2076.83,1.05265,1.05333,2076.83,1.0533,1.01981
2072.97,1.05243,1.05308,2072.97,1.05368,1.02011
2069.12,1.05229,1.05299,2069.12,1.05391,1.02032
2065.26,1.05217,1.05282,2065.26,1.05399,1.02009
2061.4,1.05229,1.05285,2061.4,1.0543,1.02014
2057.55,1.05218,1.05278,2057.55,1.05453,1.02005
2053.69,1.05219,1.05277,2053.69,1.05481,1.01994
2049.83,1.05233,1.05274,2049.83,1.05507,1.01989
2045.98,1.05212,1.05274,2045.98,1.05509,1.0197
2042.12,1.05198,1.05283,2042.12,1.05493,1.01968
2038.26,1.0521,1.05303,2038.26,1.05508,1.02
2034.41,1.05216,1.05321,2034.41,1.05519,1.02012
2030.55,1.05212,1.05337,2030.55,1.05516,1.02005
2026.69,1.05218,1.05333,2026.69,1.0551,1.01991
2022.84,1.05208,1.05314,2022.84,1.05468,1.01943
2018.98,1.05168,1.05268,2018.98,1.05412,1.01876
2015.12,1.05164,1.0525,2015.12,1.05401,1.01868
2011.27,1.05193,1.05264,2011.27,1.05416,1.01909
2007.41,1.05173,1.05244,2007.41,1.05377,1.01937
2003.55,1.05177,1.05236,2003.55,1.05359,1.01993
1999.69,1.05187,1.0523,1999.69,1.05345,1.02057
1995.84,1.05172,1.05212,1995.84,1.0531,1.02087
1991.98,1.05147,1.05189,1991.98,1.05259,1.02064
1988.12,1.05157,1.05185,1988.12,1.05231,1.02094
1984.27,1.05181,1.05182,1984.27,1.05221,1.02135
1980.41,1.05172,1.05159,1980.41,1.05196,1.02143
1976.55,1.05142,1.05123,1976.55,1.05149,1.02159
1972.7,1.05138,1.05094,1972.7,1.05079,1.02169
1968.84,1.05123,1.05055,1968.84,1.04928,1.02136
1964.98,1.05116,1.05013,1964.98,1.04722,1.02105
1961.13,1.05116,1.04999,1961.13,1.04631,1.02064
1957.27,1.05109,1.04974,1957.27,1.04695,1.01964
1953.41,1.05096,1.0493,1953.41,1.04796,1.01829
1949.56,1.05094,1.04902,1949.56,1.04887,1.0176
1945.7,1.05076,1.04856,1945.7,1.04959,1.01739
1941.84,1.05054,1.04825,1941.84,1.05017,1.01743
1937.99,1.05105,1.04899,1937.99,1.05136,1.01835
1934.13,1.05125,1.04953,1934.13,1.05212,1.01907
1930.27,1.05138,1.05001,1930.27,1.05274,1.01961
1926.42,1.05126,1.05006,1926.42,1.05295,1.01951
1922.56,1.05078,1.04975,1922.56,1.05253,1.01914
1918.7,1.05107,1.05021,1918.7,1.05309,1.01963
1914.85,1.05133,1.0507,1914.85,1.05366,1.02009
1910.99,1.05126,1.05076,1910.99,1.05383,1.01986
1907.13,1.05142,1.05089,1907.13,1.05405,1.01945
1903.28,1.05146,1.051,1903.28,1.05424,1.0191
1899.42,1.05134,1.05091,1899.42,1.05425,1.01864
1895.56,1.05114,1.05065,1895.56,1.05411,1.01828
1891.71,1.05097,1.05052,1891.71,1.05405,1.01837
1887.85,1.05107,1.05058,1887.85,1.05411,1.01908
1883.99,1.05126,1.0508,1883.99,1.05434,1.01993
1880.14,1.05108,1.05063,1880.14,1.05432,1.02045
1876.28,1.0511,1.05067,1876.28,1.05425,1.02111
1872.42,1.05089,1.05041,1872.42,1.05388,1.02141
1868.57,1.05045,1.04999,1868.57,1.05329,1.02163
1864.71,1.05081,1.05049,1864.71,1.05332,1.0226
1860.85,1.05074,1.05042,1860.85,1.05292,1.0232
1857,1.05066,1.05047,1857,1.05248,1.02381
1853.14,1.05057,1.0505,1853.14,1.05187,1.02423
1849.28,1.0502,1.05009,1849.28,1.05064,1.02378
1845.43,1.04989,1.04983,1845.43,1.04942,1.0233
1841.57,1.05014,1.05016,1841.57,1.04848,1.0231
1837.71,1.05024,1.0505,1837.71,1.04765,1.02249
1833.86,1.05003,1.05052,1833.86,1.04666,1.02132
1830,1.04983,1.05036,1830,1.04568,1.01989
1826.14,1.04961,1.05029,1826.14,1.04456,1.01895
1822.29,1.04939,1.0502,1822.29,1.04392,1.01879
1818.43,1.04923,1.05002,1818.43,1.04342,1.01905
1814.57,1.04899,1.04996,1814.57,1.043,1.0193
1810.72,1.04869,1.04977,1810.72,1.04248,1.01898
1806.86,1.04852,1.04964,1806.86,1.04208,1.01764
1803,1.04795,1.04932,1803,1.04132,1.01368
1799.15,1.04772,1.04928,1799.15,1.04135,1.00627
1795.29,1.04727,1.04911,1795.29,1.04142,0.99608
1791.43,1.04685,1.04888,1791.43,1.04107,0.98436
1787.58,1.04656,1.04901,1787.58,1.04053,0.96968
1783.72,1.04592,1.04898,1783.72,1.03978,0.94354
1779.86,1.04544,1.04894,1779.86,1.03926,0.91262
1776.01,1.0449,1.04913,1776.01,1.03848,0.89521
1772.15,1.04413,1.04933,1772.15,1.0375,0.91883
1768.29,1.0422,1.04901,1768.29,1.03436,0.95282
1764.44,1.04033,1.04919,1764.44,1.03217,0.96437
1760.58,1.03682,1.04931,1760.58,1.02856,0.96454
1756.72,1.03046,1.04922,1756.72,1.02243,0.9587
1752.87,1.01948,1.0488,1752.87,1.01258,0.94606
1749.01,0.99901,1.04818,1749.01,0.99168,0.91636
1745.15,0.97093,1.04784,1745.15,0.95511,0.86165
1741.3,0.93822,1.048,1741.3,0.89847,0.78377
1737.44,0.90702,1.04845,1737.44,0.82856,0.70493
1733.58,0.88354,1.04795,1733.58,0.7457,0.62921
1729.73,0.87418,1.04842,1729.73,0.66094,0.55639
1725.87,0.87973,1.04902,1725.87,0.58117,0.48649
1722.01,0.89483,1.04917,1722.01,0.4929,0.41422
1718.16,0.91709,1.04897,1718.16,0.3914,0.35207
1714.3,0.94867,1.04947,1714.3,0.35403,0.31956
1710.44,0.97776,1.05029,1710.44,0.45939,0.33868
1706.59,1.0038,1.05059,1706.59,0.61499,0.39911
1702.73,1.02184,1.05077,1702.73,0.73824,0.47292
1698.87,1.03276,1.05122,1698.87,0.82479,0.54527
1695.02,1.03795,1.05109,1695.02,0.87686,0.60408
1691.16,1.0401,1.05048,1691.16,0.90546,0.64829
1687.3,1.04102,1.0496,1687.3,0.92132,0.68632
1683.45,1.04231,1.04906,1683.45,0.93012,0.72822
1679.59,1.04358,1.04899,1679.59,0.94252,0.76117
1675.73,1.04464,1.0492,1675.73,0.9578,0.7875
1671.88,1.04576,1.04934,1671.88,0.97013,0.81047
1668.02,1.04688,1.04907,1668.02,0.98169,0.82864
1664.16,1.04774,1.04898,1664.16,0.99187,0.84167
1660.31,1.04837,1.04886,1660.31,1.0008,0.85328
1656.45,1.0484,1.04861,1656.45,1.00626,0.86187
1652.59,1.04919,1.04902,1652.59,1.01243,0.87413
1648.74,1.04941,1.04885,1648.74,1.01543,0.88266
1644.88,1.04955,1.0485,1644.88,1.01792,0.89231
1641.02,1.04945,1.04819,1641.02,1.01974,0.90068
1637.17,1.04947,1.04813,1637.17,1.02255,0.90861
1633.31,1.04934,1.04753,1633.31,1.02469,0.91472
1629.45,1.04894,1.04727,1629.45,1.02545,0.91723
1625.6,1.0492,1.04728,1625.6,1.02718,0.91959
1621.74,1.0492,1.04697,1621.74,1.02782,0.92123
1617.88,1.04906,1.04701,1617.88,1.02714,0.92382
1614.03,1.04869,1.04651,1614.03,1.02578,0.92652
1610.17,1.04859,1.046,1610.17,1.02758,0.92818
1606.31,1.04869,1.04558,1606.31,1.03138,0.9263
1602.46,1.04837,1.04514,1602.46,1.03377,0.91533
1598.6,1.0481,1.04465,1598.6,1.03477,0.90827
1594.74,1.04796,1.0446,1594.74,1.03478,0.91475
1590.89,1.04808,1.04505,1590.89,1.03382,0.92818
1587.03,1.0484,1.04553,1587.03,1.03095,0.94358
1583.17,1.04858,1.04595,1583.17,1.02385,0.95786
1579.32,1.04836,1.04644,1579.32,1.01639,0.96794
1575.46,1.04871,1.0471,1575.46,1.01983,0.97511
1571.6,1.0492,1.04703,1571.6,1.02694,0.97872
1567.75,1.04975,1.04715,1567.75,1.03159,0.98109
1563.89,1.04982,1.04734,1563.89,1.03326,0.98155
1560.03,1.04896,1.04691,1560.03,1.03451,0.97962
1556.18,1.04908,1.0469,1556.18,1.03458,0.97442
1552.32,1.04835,1.04597,1552.32,1.03325,0.97375
1548.46,1.048,1.04578,1548.46,1.03364,0.97867
1544.61,1.0474,1.04545,1544.61,1.03444,0.98178
1540.75,1.04851,1.0469,1540.75,1.03715,0.98278
1536.89,1.04856,1.04656,1536.89,1.03689,0.97884
1533.04,1.04761,1.04567,1533.04,1.0349,0.97061
1529.18,1.04701,1.04539,1529.18,1.03271,0.95696
1525.32,1.04669,1.04495,1525.32,1.03109,0.92915
1521.47,1.04644,1.0448,1521.47,1.0314,0.87732
1517.61,1.04565,1.04426,1517.61,1.03124,0.81924
1513.75,1.04544,1.04409,1513.75,1.0279,0.76412
1509.9,1.04463,1.04355,1509.9,1.01267,0.71844
1506.04,1.04523,1.04512,1506.04,0.98701,0.59475
1502.18,1.04611,1.04574,1502.18,0.99949,0.4642
1498.32,1.04554,1.04499,1498.32,1.02361,0.45011
1494.47,1.0446,1.04432,1494.47,1.03305,0.56781
1490.61,1.04259,1.04271,1490.61,1.03179,0.70642
1486.75,1.04168,1.04247,1486.75,1.02779,0.81487
1482.9,1.04033,1.04301,1482.9,1.0219,0.86448
1479.04,1.03595,1.04285,1479.04,1.01228,0.88863
1475.18,1.02729,1.04195,1475.18,0.99481,0.89824
1471.33,1.01521,1.04166,1471.33,0.97792,0.89921
1467.47,1.00492,1.04103,1467.47,0.98972,0.89702
1463.61,0.9989,1.03955,1463.61,1.00011,0.89662
1459.76,0.99766,1.03735,1459.76,0.99724,0.88855
1455.9,1.00126,1.03484,1455.9,0.99158,0.86401
1452.04,1.00679,1.03365,1452.04,0.99039,0.87553
1448.19,1.00997,1.03183,1448.19,0.99263,0.91652
1444.33,1.00751,1.03154,1444.33,0.99604,0.94622
1440.47,0.9955,1.03232,1440.47,0.99942,0.9577
1436.62,0.97755,1.03263,1436.62,1.00469,0.96464
1432.76,0.97153,1.03324,1432.76,1.01264,0.97094
1428.9,0.96363,1.03227,1428.9,1.01883,0.96959
1425.05,0.95837,1.02858,1425.05,1.01917,0.96605
1421.19,0.97677,1.02221,1421.19,1.00972,0.9642
1417.33,0.99073,1.01437,1417.33,0.97241,0.96333
1413.48,1.00049,1.01122,1413.48,0.90604,0.96496
1409.62,1.00947,1.0114,1409.62,0.86232,0.962
1405.76,1.0162,1.01346,1405.76,0.89346,0.9483
1401.91,1.01798,1.01601,1401.91,0.94478,0.91992
1398.05,1.01427,1.01935,1398.05,0.97088,0.87321
1394.19,1.00999,1.02521,1394.19,0.9803,0.81271
1390.34,1.00579,1.02998,1390.34,0.97923,0.75288
1386.48,1.00014,1.03211,1386.48,0.97536,0.68542
1382.62,0.99544,1.03404,1382.62,0.97839,0.61405
1378.77,0.99366,1.03497,1378.77,0.98109,0.55406
1374.91,0.99745,1.03538,1374.91,0.97829,0.52512
1371.05,1.00258,1.03574,1371.05,0.97474,0.52995
1367.2,1.0034,1.03606,1367.2,0.97921,0.55154
1363.34,0.99963,1.03566,1363.34,0.98925,0.57933
1359.48,0.99535,1.03644,1359.48,0.99581,0.61409
1355.63,0.99218,1.03687,1355.63,0.99293,0.65049
1351.77,0.99242,1.03682,1351.77,0.97604,0.68855
1347.91,0.99534,1.03684,1347.91,0.92476,0.72716
1344.06,0.99313,1.03635,1344.06,0.82928,0.76491
1340.2,0.9806,1.0349,1340.2,0.79216,0.79944
1336.34,0.96795,1.03508,1336.34,0.87207,0.83199
1332.49,0.96671,1.0356,1332.49,0.95151,0.85836
1328.63,0.97007,1.03497,1328.63,0.98206,0.87679
1324.77,0.97328,1.03416,1324.77,0.98575,0.88739
1320.92,0.97597,1.03297,1320.92,0.97997,0.89122
1317.06,0.97851,1.03187,1317.06,0.97086,0.88777
1313.2,0.98047,1.03067,1313.2,0.95881,0.87436
1309.35,0.98209,1.02982,1309.35,0.94273,0.84979
1305.49,0.98312,1.02866,1305.49,0.92292,0.83259
1301.63,0.98415,1.02695,1301.63,0.89666,0.8442
1297.78,0.98397,1.02493,1297.78,0.86128,0.84897
1293.92,0.97988,1.02245,1293.92,0.82132,0.83386
1290.06,0.9717,1.01909,1290.06,0.78025,0.8179
1286.21,0.96076,1.01494,1286.21,0.73643,0.81938
1282.35,0.94793,1.00919,1282.35,0.68799,0.84419
1278.49,0.93094,0.99957,1278.49,0.63745,0.86811
1274.64,0.90827,0.9812,1274.64,0.58918,0.87639
1270.78,0.87899,0.93931,1270.78,0.54135,0.86853
1266.92,0.84119,0.84542,1266.92,0.4905,0.844
1263.07,0.81356,0.70907,1263.07,0.44114,0.79626
1259.21,0.80916,0.62557,1259.21,0.40328,0.71418
1255.35,0.81181,0.64687,1255.35,0.37501,0.6137
1251.5,0.82868,0.74049,1251.5,0.35046,0.53474
1247.64,0.85036,0.86711,1247.64,0.33889,0.49401
1243.78,0.86655,0.94897,1243.78,0.35282,0.48216
1239.93,0.88019,0.98168,1239.93,0.40547,0.49373
1236.07,0.894,0.99431,1236.07,0.49999,0.52453
1232.21,0.90606,0.99894,1232.21,0.60907,0.56767
1228.36,0.91706,0.99904,1228.36,0.69317,0.61551
1224.5,0.93078,0.99599,1224.5,0.74424,0.66282
1220.64,0.93895,0.99091,1220.64,0.78858,0.7059
1216.79,0.93937,0.98437,1216.79,0.83277,0.74372
1212.93,0.93655,0.9771,1212.93,0.86408,0.7742
1209.07,0.933,0.9696,1209.07,0.88546,0.79215
1205.22,0.92902,0.96278,1205.22,0.90376,0.79984
1201.36,0.92391,0.95679,1201.36,0.91955,0.80726
1197.5,0.91859,0.95141,1197.5,0.93245,0.81731
1193.65,0.91462,0.9474,1193.65,0.94286,0.81784
1189.79,0.9117,0.94429,1189.79,0.95001,0.80373
1185.93,0.90959,0.94247,1185.93,0.95286,0.79897
1182.08,0.9071,0.94102,1182.08,0.95003,0.81187
1178.22,0.90428,0.93981,1178.22,0.94419,0.81271
1174.36,0.90246,0.93852,1174.36,0.94274,0.77732
1170.51,0.90274,0.93701,1170.51,0.95023,0.72541
1166.65,0.90596,0.9357,1166.65,0.95855,0.70053
1162.79,0.91199,0.93417,1162.79,0.95766,0.73606
1158.94,0.91889,0.93199,1158.94,0.95051,0.79938
1155.08,0.92289,0.92896,1155.08,0.93919,0.84998
1151.22,0.92204,0.92489,1151.22,0.92164,0.87215
1147.37,0.9167,0.91925,1147.37,0.89583,0.87647
1143.51,0.91002,0.91099,1143.51,0.85632,0.8668
1139.65,0.90466,0.90061,1139.65,0.79503,0.83399
1135.8,0.90136,0.89013,1135.8,0.70725,0.77875
1131.94,0.8961,0.87929,1131.94,0.61195,0.73278
1128.08,0.88555,0.86487,1128.08,0.54415,0.68309
1124.23,0.86845,0.84489,1124.23,0.51399,0.62944
1120.37,0.8496,0.81987,1120.37,0.51331,0.57205
1116.51,0.83792,0.7899,1116.51,0.52859,0.5111
1112.66,0.83414,0.75499,1112.66,0.5262,0.50686
1108.8,0.83023,0.71564,1108.8,0.51273,0.57703
1104.94,0.81958,0.67263,1104.94,0.48648,0.618
1101.09,0.81729,0.62749,1101.09,0.45923,0.5916
1097.23,0.82769,0.58247,1097.23,0.45673,0.54892
1093.37,0.83589,0.53976,1093.37,0.48697,0.52005
1089.52,0.84059,0.50212,1089.52,0.53903,0.51582
1085.66,0.8455,0.47133,1085.66,0.5994,0.53899
1081.8,0.85183,0.44774,1081.8,0.66659,0.58132
1077.95,0.86027,0.43033,1077.95,0.73761,0.62737
1074.09,0.87105,0.41887,1074.09,0.79721,0.66533
1070.23,0.88148,0.41228,1070.23,0.83837,0.70169
1066.38,0.88966,0.40915,1066.38,0.86627,0.73893
1062.52,0.89654,0.40944,1062.52,0.88611,0.76988
1058.66,0.90485,0.41276,1058.66,0.89826,0.79236
1054.81,0.91353,0.41825,1054.81,0.90171,0.80748
1050.95,0.92135,0.42468,1050.95,0.89762,0.81802
1047.09,0.92779,0.43133,1047.09,0.89094,0.82977
1043.24,0.93244,0.43698,1043.24,0.88821,0.84357
1039.38,0.93514,0.43946,1039.38,0.89331,0.85584
1035.52,0.93626,0.43784,1035.52,0.9028,0.86609
1031.67,0.93497,0.43083,1031.67,0.90719,0.87672
1027.81,0.93135,0.41734,1027.81,0.86718,0.88569
1023.95,0.92428,0.39672,1023.95,0.74541,0.88228
1020.1,0.91061,0.37052,1020.1,0.6852,0.86618
1016.24,0.91117,0.34607,1016.24,0.7153,0.84408
1012.38,0.92257,0.34023,1012.38,0.82969,0.84328
1008.53,0.93384,0.3709,1008.53,0.90432,0.87929
1004.67,0.94484,0.43751,1004.67,0.93571,0.90432
1000.81,0.95308,0.5224,1000.81,0.95061,0.91683
996.955,0.95807,0.60714,996.955,0.95854,0.92558
993.098,0.96142,0.68314,993.098,0.96008,0.93166
989.242,0.96315,0.74836,989.242,0.95555,0.93244
985.385,0.9628,0.8039,985.385,0.95861,0.92997
981.528,0.96028,0.85043,981.528,0.95581,0.92792
977.6715,0.95572,0.8877,977.6715,0.9379,0.9274
973.815,0.94993,0.91668,973.815,0.90876,0.92848
969.958,0.94375,0.93844,969.958,0.89986,0.9288
966.101,0.93794,0.95458,966.101,0.92305,0.92769
962.245,0.93273,0.96635,962.245,0.94732,0.92477
958.388,0.92997,0.97501,958.388,0.96351,0.92083
954.531,0.93458,0.98246,954.531,0.97367,0.91855
950.675,0.94637,0.98951,950.675,0.97993,0.9168
946.818,0.95769,0.9948,946.818,0.9841,0.9087
942.961,0.9657,0.99789,942.961,0.9874,0.89487
939.105,0.97108,0.99981,939.105,0.99035,0.8834
935.248,0.97487,1.00077,935.248,0.99259,0.88021
931.391,0.97727,1.00078,931.391,0.99436,0.88354
927.5345,0.97838,0.99968,927.5345,0.99551,0.88584
923.678,0.97958,0.99745,923.678,0.99654,0.87969
919.821,0.98162,0.99347,919.821,0.99691,0.85867
915.964,0.98413,0.98779,915.964,0.99557,0.85455
912.108,0.98642,0.98097,912.108,0.99146,0.87493
908.251,0.98882,0.97645,908.251,0.98422,0.90345
904.394,0.99104,0.97355,904.394,0.97477,0.9286
900.538,0.99241,0.96962,900.538,0.96682,0.94275
896.681,0.99323,0.96296,896.681,0.96374,0.94687
892.824,0.9932,0.95331,892.824,0.96405,0.93287
888.968,0.99231,0.9399,888.968,0.96226,0.87625
885.111,0.98899,0.92082,885.111,0.95154,0.79197
881.254,0.98213,0.89331,881.254,0.92722,0.77946
877.3975,0.97134,0.85578,877.3975,0.87768,0.82282
873.541,0.96217,0.80829,873.541,0.77535,0.85009
869.684,0.95909,0.75866,869.684,0.78031,0.84191
865.827,0.96055,0.72711,865.827,0.88153,0.82964
861.971,0.96442,0.72662,861.971,0.91574,0.82828
858.114,0.96742,0.73994,858.114,0.9163,0.80342
854.257,0.96601,0.73902,854.257,0.90304,0.7726
850.401,0.96149,0.71326,850.401,0.88509,0.77372
846.544,0.95839,0.67962,846.544,0.88241,0.78061
842.687,0.96052,0.6705,842.687,0.90284,0.77856
838.831,0.96528,0.69838,838.831,0.92523,0.77042
834.974,0.96756,0.73753,834.974,0.94301,0.74793
831.117,0.96414,0.75335,831.117,0.95545,0.70009
827.2605,0.95609,0.72981,827.2605,0.96227,0.63815
823.404,0.94723,0.67132,823.404,0.96517,0.57004
819.547,0.94392,0.60935,819.547,0.96553,0.52496
815.69,0.94387,0.56528,815.69,0.96491,0.53236
811.834,0.94241,0.52264,811.834,0.96448,0.53261
807.977,0.94033,0.46463,807.977,0.96353,0.52841
804.12,0.94047,0.39555,804.12,0.96224,0.58757
800.264,0.94416,0.33038,800.264,0.95982,0.61735
796.407,0.95083,0.28433,796.407,0.94949,0.66937
792.55,0.9618,0.26655,792.55,0.94235,0.75052
788.694,0.97612,0.28742,788.694,0.95749,0.80477
784.837,0.99,0.35308,784.837,0.97423,0.8352
780.98,0.99931,0.44582,780.98,0.98476,0.84489
777.1235,1.00416,0.53788,777.1235,0.99093,0.83818
773.267,1.0057,0.61377,773.267,0.99546,0.84032
769.41,1.00558,0.67004,769.41,0.99915,0.86224
765.553,1.00465,0.70299,765.553,1.00191,0.88525
761.697,1.00247,0.69932,761.697,1.00297,0.8948
757.84,1.00086,0.67206,757.84,1.00378,0.88698
753.983,1.00305,0.68638,753.983,1.00463,0.87959
750.127,1.0074,0.75121,750.127,1.00417,0.89084
746.27,1.00938,0.80956,746.27,0.9966,0.91654
742.413,1.00781,0.84496,742.413,0.9695,0.93116
738.557,0.99577,0.86733,738.557,0.89502,0.93542
734.7,0.96759,0.88403,734.7,0.76153,0.9015
730.843,0.96266,0.89573,730.843,0.60303,0.77846
726.9865,0.98667,0.90414,726.9865,0.463,0.61201
723.13,0.99809,0.91341,723.13,0.41092,0.45902
719.273,0.99825,0.91621,719.273,0.46475,0.46249
715.416,0.9922,0.90975,715.416,0.57583,0.61416
711.56,0.98225,0.89229,711.56,0.67549,0.71906
707.703,0.97099,0.86885,707.703,0.74335,0.75195
703.846,0.96068,0.85508,703.846,0.79367,0.76077
699.99,0.95367,0.8536,699.99,0.83925,0.79753
696.133,0.95097,0.85571,696.133,0.8809,0.83334
692.276,0.95108,0.85533,692.276,0.90836,0.85239
688.42,0.95317,0.85634,688.42,0.92642,0.86524
684.563,0.95719,0.86775,684.563,0.93648,0.87549
680.706,0.96127,0.88624,680.706,0.94225,0.88411
676.8495,0.96626,0.90197,676.8495,0.95178,0.89158
672.993,0.97533,0.91105,672.993,0.96311,0.89845
669.136,0.98043,0.91249,669.136,0.97003,0.90009
665.279,0.98993,0.90789,665.279,0.97908,0.90583
661.423,0.99037,0.90339,661.423,0.98081,0.90533
657.566,0.98391,0.93074,657.566,0.98377,0.90531
653.709,0.97192,0.96982,653.709,0.98617,0.90588
649.853,0.95732,0.98784,649.853,0.98605,0.89919