File: CSV/TIF326_Tensile_test_LDPE_CM_MD_strain_percent_stress_MPa.csv
Strain1[%],Stress1[MPa],Strain2,Stress2,Strain3,Stress3,Strain4,Stress4,Strain5,Stress5,Strain6,Stress6,Strain7,Stress7,Strain8,Stress8,Strain9,Stress9,Strain10,Stress10,Strain1[%],Stress1[MPa],Strain2,Stress2,Strain3,Stress3,Strain4,Stress4,Strain5,Stress5,Strain6,Stress6,Strain7,Stress7,Strain8,Stress8,Strain9,Stress9,Strain10,Stress10
0.0,0.618992,0.0,0.612641,0.0,0.588768,0.0,0.609592,0.0,0.612566,0.0,0.608254,0.0,0.596968,0.0,0.596497,0.0,0.61358,0.0,0.588177,0.0,0.616721,0.0,0.599233,0.0,0.592412,0.0,0.587826,0.0,0.600018,0.0,0.606388,0.0,0.595773,0.0,0.60945,0.0,0.608053,0.0,0.605325
-8.48489e-06,0.599413,-4.77495e-06,0.595255,-6.49294e-08,0.571617,-8.70332e-07,0.592323,-4.4695e-06,0.594949,9.92565e-06,0.588592,2.644342e-06,0.581534,6.38693e-06,0.579188,-2.42529e-06,0.594295,3.94567e-06,0.572254,1.65582e-06,0.602741,-1.80476e-06,0.586869,6.66834e-06,0.579655,5.7822e-07,0.581517,1.39161e-06,0.586594,3.34794e-06,0.594024,-1.33063e-06,0.584827,7.22248e-06,0.595642,-7.12224e-06,0.59423,-4.37711e-06,0.590726
-3.24582e-06,0.584113,-1.75518e-06,0.578672,-7.5751e-07,0.555927,2.57836e-06,0.578615,-5.15628e-06,0.578298,4.27867e-06,0.571184,-2.35053e-06,0.568929,4.00132e-06,0.5659,-2.14253e-06,0.578025,1.31522e-06,0.559636,2.91948e-06,0.589906,-2.75063e-06,0.575594,9.27674e-07,0.571559,1.09098e-06,0.579038,2.69624e-06,0.577149,-2.77184e-06,0.579539,-4.73354e-06,0.57781,7.70181e-06,0.581794,-9.14783e-07,0.5813,-2.92896e-06,0.57826
0.229801,1.55823,0.275421,1.70894,0.279336,1.68088,0.072259,0.924292,0.264037,1.55429,0.223451,1.45269,0.24073,1.57343,0.228813,1.52353,0.297799,1.78495,0.308979,1.80648,0.286746,1.54365,0.280552,1.4533,0.241484,1.32007,-6.65498e-07,0.565788,0.212116,1.21175,0.240793,1.30782,0.173015,1.11968,0.201138,1.24825,0.326487,1.60976,-4.71465e-06,0.56775
0.771272,3.25268,0.817901,3.33492,0.817393,3.28702,0.611144,2.59224,0.806458,3.12103,0.763574,3.0485,0.782264,3.23178,0.76807,3.21831,0.838618,3.41732,0.849568,3.40065,0.828575,2.91522,0.821389,2.72466,0.784395,2.59268,0.349865,1.62015,0.753093,2.44822,0.781234,2.55391,0.715348,2.41335,0.743131,2.60485,0.86842,2.90625,0.315024,1.52069
1.31326,4.54919,1.35999,4.59042,1.35579,4.543,1.15211,3.8801,1.34848,4.34592,1.30355,4.27491,1.32337,4.50119,1.30712,4.52584,1.3795,4.69577,1.3902,4.64744,1.37036,4.06526,1.36179,3.78845,1.32714,3.643,0.892742,2.83232,1.29366,3.47045,1.32192,3.58713,1.25777,3.46704,1.28484,3.70658,1.40997,4.0054,0.856817,2.75377
1.85513,5.59679,1.90233,5.60533,1.89388,5.57207,1.69334,4.9162,1.89085,5.33988,1.84387,5.26827,1.86457,5.52277,1.84687,5.58841,1.92082,5.74272,1.9309,5.6632,1.91224,5.07043,1.90308,4.72136,1.87023,4.55526,1.43528,3.85953,1.83462,4.3568,1.86288,4.48522,1.80052,4.3782,1.8268,4.65823,1.95138,4.96926,1.39836,3.78635
2.39664,6.44953,2.44455,6.43427,2.43233,6.41977,2.23444,5.76816,2.43299,6.15843,2.38386,6.08614,2.40609,6.35645,2.38603,6.46119,2.46141,6.59954,2.47146,6.49313,2.4543,5.95734,2.4436,5.54667,2.41297,5.36275,1.97802,4.76934,2.37522,5.14517,2.40319,5.27717,2.34284,5.17889,2.3686,5.49788,2.49347,5.82155,1.93964,4.6825
2.93857,7.15075,2.98674,7.11329,2.97052,7.12495,2.77548,6.47223,2.97522,6.8309,2.92427,6.76125,2.94712,7.03992,2.92547,7.18063,3.00259,7.30709,3.01235,7.181,2.99591,6.74303,2.98449,6.28126,2.95578,6.08049,2.52061,5.55506,2.91602,5.84617,2.94409,5.98077,2.88538,5.89091,2.91037,6.2392,3.03489,6.57964,2.48163,5.47503
3.48024,7.7265,3.52907,7.67228,3.50866,7.71027,3.31673,7.05313,3.51746,7.38784,3.46421,7.31774,3.48863,7.60274,3.46495,7.77407,3.54344,7.89016,3.55274,7.74649,3.53793,7.44503,3.52527,6.93803,3.4989,6.72261,3.06325,6.24361,3.45689,6.47249,3.48463,6.6083,3.4281,6.52346,3.45232,6.90181,3.57677,7.25865,3.02299,6.17922
4.02199,8.19212,4.07113,8.12667,4.04733,8.1926,3.85766,7.53079,4.05956,7.8442,4.0046,7.7793,4.02985,8.0583,4.00419,8.26144,4.08437,8.36655,4.09368,8.20921,4.07964,8.06728,4.06576,7.52702,4.04135,7.29687,3.60594,6.87182,3.99739,7.03948,4.02533,7.17275,3.97021,7.09291,3.99393,7.49184,4.1185,7.86791,3.56465,6.80684
4.56387,8.57226,4.61376,8.49799,4.58532,8.59338,4.39914,7.92425,4.6022,8.22173,4.54463,8.15813,4.57114,8.43072,4.54369,8.66038,4.62536,8.76064,4.63411,8.58884,4.62142,8.62848,4.60679,8.05914,4.58456,7.81673,4.14839,7.43676,4.53861,7.55098,4.56598,7.68057,4.51311,7.60785,4.53621,8.02153,4.66004,8.41806,4.10641,7.36981
5.10563,8.87728,5.15587,8.79427,5.12367,8.91934,4.94013,8.24303,5.14418,8.52379,5.08455,8.46503,5.11227,8.72895,5.08302,8.9852,5.16636,9.08001,5.17465,8.89664,5.16351,9.13373,5.14748,8.53801,5.12737,8.28171,4.69147,7.94107,5.0792,8.01141,5.10671,8.13757,5.05552,8.06896,5.07792,8.49607,5.20178,8.91296,4.64778,7.87806
5.64757,9.12006,5.69816,9.03286,5.66189,9.1812,5.48126,8.50058,5.68658,8.76982,5.62507,8.70915,5.65369,8.9667,5.62227,9.24199,5.70744,9.33206,5.71558,9.14008,5.7052,9.58427,5.68838,8.96418,5.67021,8.70043,5.23395,8.38578,5.61992,8.42404,5.64748,8.5451,5.59803,8.48358,5.61979,8.92102,5.74343,9.35339,5.18948,8.33377
6.18912,9.30402,6.24039,9.21546,6.20002,9.38594,6.02244,8.70259,6.22864,8.96021,6.16495,8.9008,6.19492,9.1482,6.16187,9.44448,6.24827,9.52877,6.25602,9.32925,6.24712,9.97907,6.22918,9.34206,6.21302,9.07247,5.77666,8.7811,6.1608,8.78938,6.18802,8.90563,6.14051,8.85047,6.16163,9.29428,6.28509,9.74403,5.73105,8.74078
6.7312,9.44273,6.78254,9.3518,6.73847,9.54403,6.56347,8.8578,6.77083,9.10606,6.70529,9.04805,6.73607,9.28538,6.70112,9.59725,6.78938,9.67772,6.79693,9.47179,6.78911,10.3278,6.76986,9.67795,6.7558,9.39785,6.31928,9.13781,6.70134,9.11261,6.72882,9.22209,6.68288,9.1753,6.70335,9.62347,6.82673,10.0892,6.27255,9.09848
7.27266,9.54269,7.32499,9.45274,7.27668,9.66492,7.10476,8.97396,7.31325,9.2136,7.24565,9.15813,7.27769,9.38459,7.24055,9.70757,7.33015,9.78774,7.33762,9.57741,7.33085,10.6328,7.31076,9.97326,7.29884,9.68534,6.86181,9.44867,7.24227,9.3976,7.2693,9.49978,7.22554,9.45882,7.2454,9.91218,7.36859,10.3919,6.81415,9.41526
7.81463,9.60838,7.86741,9.51787,7.81506,9.74828,7.64604,9.05623,7.85555,9.28683,7.78546,9.23267,7.81882,9.45067,7.77973,9.78318,7.87113,9.85918,7.87808,9.64785,7.87278,10.8984,7.85128,10.2305,7.84152,9.93701,7.40466,9.71998,7.78305,9.64649,7.81004,9.74361,7.76796,9.70913,7.78744,10.1624,7.91036,10.6566,7.35579,9.69288
8.35638,9.64557,8.40933,9.55781,8.35329,9.80232,8.18683,9.10808,8.3976,9.33401,8.3258,9.28191,8.36003,9.48945,8.31939,9.82935,8.41221,9.9018,8.4188,9.69103,8.41445,11.1278,8.39225,10.4539,8.38459,10.158,7.94749,9.95325,8.32382,9.86487,8.35078,9.95506,8.31066,9.92659,8.32895,10.38,8.4518,10.8881,7.8976,9.93475
8.89808,9.65971,8.95178,9.57658,8.8916,9.83233,8.72815,9.13734,8.93995,9.35811,8.86583,9.30658,8.9016,9.50565,8.85851,9.85228,8.95293,9.92265,8.95937,9.70935,8.95659,11.3316,8.93293,10.6526,8.9274,10.351,8.48983,10.1574,8.86472,10.0583,8.89129,10.1459,8.85306,10.1187,8.87103,10.5735,8.99389,11.0923,8.4389,10.1471
9.4401,9.65577,9.49395,9.57766,9.42993,9.84068,9.2692,9.14764,9.48215,9.3648,9.40599,9.31377,9.44241,9.50293,9.39799,9.8562,9.49428,9.92464,9.50008,9.70859,9.49822,11.5093,9.47375,10.8283,9.47011,10.5242,9.03269,10.3438,9.40542,10.2309,9.43231,10.3128,9.39554,10.2902,9.41276,10.7435,9.5351,11.2718,8.9809,10.3357
9.98162,9.63846,10.0363,9.56303,9.96793,9.83395,9.81042,9.142,10.0244,9.35501,9.94624,9.30589,9.98414,9.48897,9.93749,9.84409,10.0351,9.91248,10.0408,9.69787,10.0403,11.6681,10.0148,10.984,10.0132,10.6777,9.57527,10.5043,9.94631,10.3829,9.97279,10.4617,9.93812,10.4415,9.95467,10.8936,10.0771,11.4316,9.5221,10.5015
10.5234,9.61453,10.5784,9.54006,10.5066,9.81555,10.3514,9.12757,10.5665,9.33831,10.4863,9.28805,10.5253,9.46424,10.4766,9.81929,10.576,9.88628,10.5815,9.67233,10.582,11.8096,10.5552,11.1239,10.5557,10.8152,10.118,10.6447,10.4868,10.5197,10.5135,10.594,10.4803,10.5771,10.4964,11.0293,10.6188,11.5731,10.0637,10.6495
11.0653,9.57748,11.1208,9.51052,11.0446,9.7885,10.8927,9.10247,11.1089,9.31096,11.0267,9.26158,11.0666,9.43398,11.0162,9.78746,11.1172,9.85387,11.1222,9.64194,11.1237,11.935,11.0964,11.2509,11.0988,10.9383,10.6605,10.7722,11.0279,10.6426,11.0543,10.7133,11.0231,10.6967,11.0384,11.1489,11.1604,11.7013,10.6055,10.7779
11.6069,9.53626,11.663,9.4733,11.5831,9.75656,11.4338,9.07266,11.651,9.27747,11.5667,9.22908,11.6078,9.39776,11.5554,9.748,11.6579,9.81333,11.6628,9.60396,11.6658,12.046,11.6369,11.3638,11.6417,11.0492,11.2033,10.8878,11.5685,10.7522,11.5947,10.8202,11.5656,10.8071,11.5802,11.2583,11.7021,11.8179,11.147,10.8955
12.1489,9.49512,12.2052,9.43494,12.1213,9.71862,11.9749,9.03881,12.1933,9.24001,12.1072,9.19739,12.149,9.35802,12.0948,9.70566,12.1992,9.77308,12.2037,9.56593,12.2074,12.1469,12.1778,11.4683,12.1843,11.1491,11.7459,10.9923,12.1094,10.8557,12.1357,10.9198,12.108,10.9068,12.122,11.3569,12.2437,11.9218,11.6887,11.0018
12.6905,9.45257,12.7477,9.39637,12.6593,9.68042,12.5162,9.00175,12.7357,9.20395,12.6468,9.16028,12.6904,9.31868,12.6342,9.66543,12.7399,9.72924,12.7438,9.52517,12.7495,12.2397,12.7185,11.5608,12.7276,11.2431,12.2885,11.0848,12.6502,10.9483,12.6762,11.0101,12.6509,10.9982,12.6641,11.4462,12.7855,12.0173,12.2302,11.099
13.2325,9.41135,13.2896,9.3574,13.1979,9.63983,13.0571,8.96446,13.2776,9.16893,13.1873,9.12375,13.2316,9.27851,13.1735,9.62221,13.2811,9.68743,13.2849,9.48219,13.2914,12.3248,13.2595,11.6474,13.2701,11.3274,12.8314,11.1709,13.1907,11.035,13.2171,11.0934,13.1931,11.0835,13.2056,11.5296,13.3271,12.1045,12.7718,11.1886
13.7741,9.3719,13.8321,9.31885,13.736,9.59993,13.5984,8.92802,13.8201,9.13214,13.7275,9.08669,13.773,9.23969,13.7131,9.57883,13.8219,9.64588,13.8255,9.4418,13.833,12.4015,13.8002,11.7292,13.8132,11.4074,13.3737,11.2502,13.7318,11.114,13.7576,11.1709,13.7358,11.1607,13.7477,11.6055,13.8688,12.1831,13.3134,11.2703
14.3159,9.3352,14.3743,9.2838,14.2743,9.56145,14.1395,8.89513,14.3622,9.09777,14.2676,9.05395,14.3143,9.20397,14.2523,9.53856,14.3628,9.60714,14.3661,9.40551,14.3751,12.4741,14.3409,11.8053,14.356,11.481,13.9166,11.3246,14.2724,11.1886,14.2982,11.2435,14.2782,11.2336,14.2895,11.6795,14.4106,12.2573,13.8549,11.3447
14.8577,9.30075,14.9165,9.25394,14.8127,9.52461,14.6805,8.86414,14.9045,9.06536,14.8079,9.02228,14.8554,9.17121,14.7919,9.50041,14.9039,9.56827,14.907,9.37115,14.9168,12.542,14.8818,11.8741,14.8988,11.5503,14.4592,11.3946,14.8132,11.2562,14.839,11.3098,14.8207,11.3029,14.8313,11.748,14.9521,12.3277,14.3967,11.4128
15.3993,9.27159,15.459,9.22217,15.3508,9.49276,15.2219,8.83453,15.4468,9.03573,15.3478,8.99285,15.3969,9.14158,15.3312,9.46628,15.4446,9.53458,15.4473,9.34013,15.4586,12.6047,15.4224,11.9401,15.4417,11.6143,15.0018,11.4578,15.3541,11.321,15.3795,11.3743,15.3632,11.3655,15.3734,11.8109,15.4941,12.3921,14.9381,11.4791
15.9414,9.24516,16.001,9.19676,15.8892,9.46362,15.7629,8.80944,15.9889,9.00888,15.8881,8.96974,15.9379,9.11372,15.8704,9.4337,15.9859,9.50664,15.9882,9.31426,16.0005,12.6617,15.9632,12.0027,15.9847,11.6763,15.5447,11.5192,15.8947,11.3843,15.9205,11.4355,15.9059,11.4255,15.915,11.8708,16.0356,12.4536,15.4799,11.5393
16.483,9.22101,16.5434,9.17161,16.4274,9.43774,16.3041,8.7872,16.5313,8.98648,16.4283,8.94818,16.4794,9.09148,16.4101,9.40661,16.5268,9.47854,16.5288,9.29028,16.5424,12.7173,16.5042,12.0616,16.5275,11.736,16.0872,11.5776,16.4356,11.4424,16.461,11.4919,16.4483,11.4817,16.457,11.928,16.5772,12.5118,16.0214,11.598
17.0248,9.20329,17.0857,9.15327,16.9656,9.41505,16.8453,8.76784,17.0735,8.96754,16.9683,8.92982,17.0206,9.07169,16.9491,9.38195,17.0676,9.45838,17.0694,9.26926,17.0844,12.7708,17.0447,12.1173,17.0702,11.7922,16.63,11.6319,16.9763,11.5005,17.0016,11.5487,16.9905,11.5389,16.9989,11.9828,17.119,12.5673,16.5628,11.6549
17.5667,9.18957,17.6278,9.13805,17.5038,9.39807,17.3863,8.7527,17.6157,8.95209,17.5087,8.91479,17.5617,9.05404,17.4888,9.36212,17.6088,9.44276,17.6102,9.25259,17.6261,12.8241,17.5858,12.1718,17.6133,11.8475,17.1726,11.6846,17.5171,11.5552,17.5424,11.6025,17.5334,11.5927,17.5406,12.0363,17.6605,12.6217,17.1046,11.7096
18.1083,9.18002,18.1703,9.12691,18.0422,9.38278,17.9277,8.74203,18.1581,8.94077,18.0487,8.9045,18.1034,9.04323,18.028,9.34677,18.1495,9.42939,18.1507,9.24198,18.1682,12.8757,18.1265,12.2263,18.156,11.9015,17.7152,11.738,18.0579,11.6102,18.0829,11.6548,18.0757,11.645,18.0827,12.09,18.2025,12.6737,17.6459,11.76135
18.6502,9.1734,18.7124,9.11846,18.5807,9.37185,18.4686,8.73387,18.7001,8.93295,18.589,8.89611,18.6445,9.03502,18.5672,9.33185,18.6905,9.41847,18.6915,9.23245,18.7097,12.9234,18.667,12.2812,18.6987,11.9544,18.2581,11.792,18.5986,11.6628,18.6237,11.7068,18.6182,11.6968,18.6244,12.1415,18.7441,12.7236,18.1878,11.8115
19.19216,9.17006,19.2548,9.11307,19.1186,9.36364,19.0099,8.72954,19.2425,8.9277,19.1291,8.89299,19.1859,9.02951,19.1068,9.32185,19.2317,9.41199,19.2321,9.22838,19.2517,12.9721,19.2082,12.3353,19.242,12.0053,18.8005,11.8416,19.1397,11.7162,19.1644,11.7601,19.161,11.748,19.1664,12.1943,19.2858,12.7753,18.7294,11.8635
19.7335,9.16943,19.7968,9.11084,19.6573,9.36087,19.5508,8.72665,19.7844,8.92571,19.6692,8.89204,19.7269,9.02829,19.6461,9.31466,19.7725,9.40979,19.7727,9.22689,19.7936,13.0184,19.7486,12.3864,19.7845,12.0569,19.3433,11.8929,19.6801,11.7679,19.705,11.8117,19.7032,11.7993,19.708,12.2433,19.8275,12.8275,19.2709,11.9116
20.2756,9.17234,20.3392,9.11132,20.1952,9.35932,20.092,8.72801,20.327,8.92619,20.2094,8.89272,20.2684,9.02872,20.1856,9.31062,20.3136,9.41167,20.3134,9.22719,20.3354,13.067,20.2896,12.4393,20.3275,12.1074,19.8858,11.9415,20.2213,11.8212,20.2458,11.863,20.2459,11.8501,20.25,12.2938,20.3691,12.8781,19.8126,11.9601
20.8173,9.17602,20.8815,9.11308,20.7336,9.35909,20.6332,8.73019,20.869,8.92947,20.7494,8.89656,20.8096,9.03087,20.725,9.31038,20.8545,9.41076,20.8539,9.23142,20.8774,13.1134,20.8304,12.4913,20.8704,12.161,20.4286,11.9913,20.7618,11.8738,20.7864,11.9163,20.7884,11.901,20.7918,12.3446,20.9109,12.9286,20.3541,12.01
21.3591,9.18176,21.4236,9.11913,21.272,9.36293,21.1742,8.73714,21.4113,8.93683,21.29,8.902,21.3511,9.03406,21.2642,9.31288,21.3956,9.4171,21.395,9.23481,21.4191,13.164,21.3712,12.5446,21.413,12.2152,20.9712,12.0419,21.3025,11.9272,21.3272,11.9687,21.3307,11.9525,21.3336,12.3973,21.4527,12.9808,20.8957,12.0597
21.9007,9.19054,21.9662,9.12733,21.8103,9.36796,21.7157,8.74372,21.9538,8.94433,21.8299,8.90868,21.8923,9.04521,21.8036,9.31798,21.9363,9.42591,21.9354,9.241,21.961,13.2142,21.912,12.5988,21.9561,12.2698,21.5137,12.0943,21.8435,11.98,21.8676,12.0219,21.8734,12.0063,21.8758,12.4486,21.9943,13.0326,21.4376,12.111
22.4427,9.20329,22.5082,9.13625,22.3485,9.3761,22.2566,8.75346,22.4957,8.95408,22.37,8.91852,22.4334,9.05017,22.3429,9.32288,22.4775,9.43155,22.4762,9.24993,22.5029,13.2656,22.4527,12.6543,22.4988,12.3238,22.0568,12.1453,22.3843,12.0339,22.4086,12.0753,22.4158,12.0579,22.4174,12.5027,22.5359,13.0847,21.9789,12.1618
22.9844,9.21378,23.0504,9.14807,22.8867,9.38474,22.7977,8.76578,23.038,8.96771,22.9104,8.9287,22.9749,9.06218,22.8824,9.32852,23.0184,9.44177,23.0169,9.26266,23.0446,13.3154,22.9936,12.7094,23.0419,12.3799,22.5992,12.1985,22.9249,12.0877,22.9492,12.1273,22.9585,12.1105,22.9592,12.5577,23.0776,13.1396,22.5206,12.2143
23.5261,9.22352,23.5928,9.15965,23.425,9.39346,23.3389,8.77543,23.5802,8.97901,23.4503,8.93973,23.5161,9.07552,23.4216,9.33745,23.5594,9.45031,23.5573,9.27318,23.5866,13.365,23.5344,12.7647,23.5846,12.4338,23.1418,12.2535,23.4658,12.1408,23.4899,12.1812,23.5009,12.1633,23.5012,12.6083,23.6195,13.1932,23.062,12.2681
24.0681,9.23553,24.1349,9.17011,23.9633,9.40523,23.8799,8.78682,24.1224,8.99283,23.9906,8.95385,24.0571,9.08437,23.9612,9.34748,24.1005,9.46112,24.0981,9.28387,24.1284,13.415,24.0751,12.8211,24.1276,12.4883,23.6846,12.3051,24.0065,12.1957,24.0307,12.2349,24.0436,12.219,24.0428,12.6617,24.1608,13.2467,23.6039,12.3223
24.6095,9.2478,24.6772,9.18213,24.5015,9.41706,24.4211,8.79959,24.6647,9.00803,24.5309,8.96491,24.5989,9.1003,24.5006,9.35798,24.6412,9.4732,24.6389,9.29732,24.6704,13.4655,24.6159,12.8759,24.6704,12.5431,24.2271,12.3566,24.5473,12.2512,24.5711,12.2892,24.586,12.2729,24.5848,12.7136,24.7028,13.3029,24.1451,12.377
25.1515,9.26062,25.2195,9.19765,25.0399,9.42943,24.9622,8.81494,25.2069,9.02355,25.0709,8.97773,25.1398,9.10915,25.0398,9.37057,25.1823,9.48663,25.1795,9.30898,25.2121,13.5191,25.1565,12.9309,25.2131,12.6007,24.7698,12.4094,25.088,12.3074,25.1119,12.3442,25.1284,12.3287,25.1266,12.7679,25.2444,13.3557,24.687,12.4306
25.6933,9.27586,25.7619,9.2114,25.578,9.44339,25.5035,8.82881,25.7493,9.04195,25.6111,8.99235,25.6812,9.12661,25.5795,9.38352,25.7233,9.50028,25.7201,9.32268,25.7539,13.5706,25.6976,12.9876,25.7562,12.657,25.3125,12.4649,25.629,12.3631,25.6526,12.4001,25.6711,12.3828,25.6686,12.8232,25.786,13.4108,25.2285,12.4854
26.235,9.29061,26.3041,9.22751,26.1165,9.4577,26.0446,8.84476,26.2914,9.05676,26.1512,9.0063,26.2226,9.1421,26.1183,9.39552,26.2641,9.51225,26.2607,9.33787,26.2959,13.6234,26.2381,13.0461,26.2991,12.715,25.8552,12.52,26.1695,12.4196,26.1932,12.4555,26.2136,12.4398,26.2104,12.8784,26.328,13.467,25.77,12.5416
26.7769,9.30478,26.8463,9.24233,26.6547,9.47245,26.5856,8.86068,26.8337,9.0742,26.6914,9.02102,26.7636,9.15459,26.6581,9.41066,26.8053,9.52655,26.8014,9.35289,26.8375,13.6762,26.779,13.1028,26.8417,12.7732,26.3979,12.576,26.7105,12.4749,26.7341,12.5103,26.7559,12.4958,26.7523,12.9322,26.8693,13.5237,26.3119,12.5982
27.3186,9.31843,27.3887,9.25682,27.1928,9.48709,27.127,8.87552,27.376,9.09077,27.2314,9.03595,27.3051,9.17252,27.1975,9.42248,27.3461,9.54044,27.3419,9.36682,27.3797,13.7296,27.3199,13.1587,27.3848,12.8301,26.9405,12.6304,27.2512,12.5311,27.2745,12.5653,27.2986,12.5505,27.2943,12.9869,27.4112,13.5775,26.8531,12.6535
27.8604,9.33287,27.9306,9.27169,27.7313,9.50288,27.6677,8.89109,27.918,9.10522,27.7718,9.05149,27.8462,9.18383,27.7368,9.43717,27.8872,9.55436,27.8828,9.38095,27.9214,13.7804,27.8605,13.2134,27.9274,12.8871,27.4833,12.6853,27.7918,12.5872,27.8154,12.6202,27.8409,12.6052,27.8358,13.0412,27.9528,13.6344,27.3948,12.709
28.4023,9.34663,28.4733,9.28635,28.2693,9.51826,28.2093,8.90591,28.4607,9.12265,28.3119,9.06502,28.3877,9.20221,28.2762,9.45192,28.4281,9.56852,28.4233,9.39491,28.4633,13.833,28.4014,13.2702,28.4705,12.943,28.0256,12.7409,28.3329,12.645,28.356,12.6768,28.3836,12.6606,28.3781,13.0947,28.4946,13.6894,27.9365,12.7643
28.9439,9.36045,29.0153,9.30111,28.8078,9.53338,28.7502,8.91979,29.0025,9.13849,28.852,9.08048,28.9289,9.21508,28.8154,9.467,28.9689,9.5834,28.9641,9.40976,29.0053,13.8875,28.942,13.3277,29.0132,13.0002,28.5687,12.7955,28.8734,12.7001,28.8965,12.733,28.926,12.7192,28.9196,13.148,29.0363,13.7448,28.478,12.8216
29.4859,9.37549,29.5577,9.316,29.3461,9.54979,29.2915,8.9353,29.545,9.15536,29.3924,9.09591,29.4703,9.22741,29.3549,9.48093,29.51,9.60045,29.5049,9.42519,29.5469,13.9411,29.4829,13.3829,29.5561,13.0576,29.1111,12.8493,29.4143,12.758,29.4373,12.7894,29.4686,12.7748,29.4617,13.2025,29.5779,13.8013,29.0197,12.8769
30.0275,9.39068,30.1,9.3336,29.8843,9.56537,29.8327,8.95175,30.0872,9.17086,29.9322,9.11058,30.0115,9.24449,29.8941,9.49536,30.0509,9.61372,30.0452,9.43913,30.0888,13.995,30.0236,13.4414,30.0991,13.1153,29.6539,12.9066,29.9552,12.8155,29.9778,12.8453,30.0111,12.8308,30.0036,13.2586,30.1197,13.858,29.5612,12.9324
30.5694,9.40526,30.6419,9.3478,30.4226,9.58052,30.3734,8.96785,30.6291,9.18648,30.4726,9.12641,30.5526,9.25963,30.4337,9.51076,30.5922,9.62731,30.5861,9.45429,30.6309,14.049,30.5645,13.4985,30.6419,13.1719,30.1966,12.9635,30.4958,12.8717,30.5189,12.9017,30.5536,12.8853,30.5451,13.3133,30.6612,13.9141,30.1029,12.9862
31.111,9.41968,31.1844,9.36289,30.9609,9.59682,30.9149,8.98337,31.1717,9.20195,31.0127,9.14294,31.0942,9.27702,30.9731,9.52483,31.1329,9.64162,31.1267,9.47109,31.1725,14.1023,31.1053,13.5564,31.1848,13.2276,30.7389,13.0193,31.0368,12.9294,31.0593,12.9553,31.0961,12.9415,31.0873,13.3691,31.2031,13.9716,30.6444,13.0415
31.6529,9.43457,31.7266,9.37867,31.4991,9.61168,31.4559,8.99777,31.7138,9.21589,31.5528,9.15763,31.6354,9.29143,31.5122,9.53891,31.674,9.65496,31.6674,9.48636,31.7144,14.1564,31.646,13.612,31.7275,13.2835,31.2819,13.0749,31.5775,12.9871,31.6002,13.0125,31.6384,12.9978,31.629,13.4243,31.7449,14.0291,31.186,13.0967
32.1947,9.44736,32.269,9.39147,32.0375,9.62722,31.9971,9.01318,32.2562,9.23162,32.0931,9.17324,32.1766,9.30491,32.0519,9.55425,32.215,9.6705,32.2081,9.49779,32.2563,14.2086,32.1871,13.668,32.2706,13.3406,31.8244,13.1286,32.1183,13.0435,32.1408,13.0679,32.1812,13.0528,32.1709,13.4788,32.2862,14.0844,31.7279,13.1529
32.7362,9.46209,32.8113,9.40568,32.5757,9.64055,32.5383,9.0271,32.7984,9.24596,32.6332,9.18702,32.718,9.32041,32.5911,9.5675,32.7558,9.68564,32.7487,9.5092,32.7982,14.2622,32.7276,13.7225,32.8133,13.396,32.3672,13.1826,32.6592,13.1002,32.6813,13.1242,32.7235,13.1091,32.7128,13.5325,32.8283,14.1397,32.2691,13.2074
33.2784,9.47513,33.3534,9.42046,33.114,9.6532,33.0794,9.04152,33.3406,9.25946,33.1734,9.20024,33.2591,9.33236,33.1304,9.5815,33.2968,9.69627,33.2894,9.5228,33.3399,14.3156,33.2682,13.777,33.3562,13.452,32.9099,13.2379,33.1997,13.1526,33.22212,13.1771,33.2662,13.1628,33.2546,13.5862,33.3697,14.1925,32.811,13.2608
33.82,9.48755,33.8957,9.43319,33.6522,9.66642,33.6206,9.05494,33.8828,9.27348,33.7136,9.21342,33.8006,9.34516,33.6699,9.59362,33.838,9.7089,33.83,9.53633,33.8819,14.3653,33.8095,13.8324,33.8992,13.5041,33.4525,13.2902,33.7406,13.2059,33.7629,13.2319,33.8088,13.2171,33.7965,13.6399,33.9115,14.2456,33.3524,13.3119
34.3618,9.49867,34.4379,9.44566,34.1906,9.67732,34.1616,9.06806,34.4249,9.28606,34.2536,9.22489,34.3417,9.35793,34.2091,9.60475,34.3787,9.71916,34.3707,9.54802,34.4237,14.4159,34.3498,13.886,34.4418,13.558,33.9952,13.3434,34.2813,13.2573,34.3034,13.2842,34.3511,13.2681,34.3383,13.692,34.4532,14.2976,33.8939,13.365
34.9035,9.51033,34.9802,9.45681,34.7286,9.6909,34.7027,9.08029,34.9673,9.29762,34.794,9.23864,34.883,9.36931,34.7488,9.61504,34.9199,9.73007,34.9115,9.55829,34.9655,14.4666,34.8909,13.9385,34.9849,13.6094,34.5377,13.3969,34.8223,13.3086,34.8442,13.3361,34.8938,13.3195,34.8802,13.7436,34.9947,14.3493,34.4357,13.4159
35.4452,9.51929,35.5224,9.4686,35.2671,9.70394,35.2438,9.09162,35.5094,9.31071,35.334,9.25123,35.4244,9.3828,35.288,9.62387,35.4607,9.74008,35.452,9.5692,35.5075,14.5166,35.4315,13.9903,35.5277,13.6598,35.0804,13.4454,35.3628,13.3604,35.3848,13.3881,35.4362,13.37,35.422,13.7937,35.5367,14.4001,34.977,13.4648
35.9871,9.52894,36.0647,9.47886,35.8054,9.71297,35.785,9.10302,36.0518,9.32201,35.8743,9.26339,35.9655,9.39104,35.8275,9.63543,36.0017,9.75386,35.9928,9.58065,36.0491,14.5633,35.9722,14.0402,36.0704,13.7113,35.623,13.4939,35.9037,13.4126,35.9255,13.4399,35.9786,13.42,35.9639,13.844,36.0782,14.4515,35.519,13.5156
36.5288,9.5392,36.6072,9.48888,36.3435,9.72281,36.3264,9.11433,36.5941,9.33233,36.4143,9.27293,36.5069,9.40181,36.3667,9.64585,36.5426,9.76784,36.5333,9.59041,36.5911,14.6115,36.5132,14.0892,36.6137,13.7611,36.1657,13.5429,36.4446,13.4612,36.4661,13.4893,36.5215,13.4705,36.5059,13.8934,36.6199,14.5012,36.0604,13.5654
37.0708,9.54911,37.1492,9.49999,36.882,9.73289,36.8673,9.12442,37.1361,9.34277,36.9545,9.282,37.048,9.41134,36.9061,9.65503,37.0837,9.77152,37.0741,9.59759,37.133,14.6604,37.0538,14.1385,37.1561,13.8098,36.7086,13.5896,36.9852,13.5092,37.007,13.5375,37.0636,13.5179,37.0475,13.9408,37.1615,14.5481,36.602,13.6137
37.6124,9.55843,37.6918,9.50956,37.42,9.74063,37.4087,9.13482,37.6787,9.3539,37.4947,9.29211,37.5895,9.4218,37.4455,9.66163,37.6246,9.77996,37.6147,9.60577,37.6748,14.7058,37.5948,14.1861,37.6992,13.8584,37.251,13.6397,37.5261,13.5561,37.5475,13.5843,37.6063,13.5664,37.5897,13.9883,37.7033,14.5933,37.1435,13.6609
38.1543,9.56521,38.2338,9.51839,37.9584,9.75017,37.9496,9.1444,38.2206,9.36199,38.0347,9.30159,38.1306,9.43046,37.985,9.66956,38.1656,9.78821,38.1552,9.61515,38.2167,14.7508,38.1355,14.2327,38.242,13.9038,37.794,13.6875,38.0668,13.602,38.0883,13.6312,38.1487,13.6109,38.1313,14.0336,38.245,14.6387,37.6852,13.7071
38.6961,9.5713,38.776,9.52677,38.4967,9.75858,38.4907,9.15378,38.7629,9.37014,38.5752,9.31044,38.6719,9.43726,38.5244,9.67666,38.7067,9.7965,38.6962,9.6233,38.7585,14.7946,38.6764,14.2797,38.7848,13.9489,38.3364,13.7333,38.6075,13.647,38.629,13.6772,38.6913,13.6555,38.6732,14.079,38.7865,14.6875,38.2268,13.7528
39.2376,9.5793,39.3184,9.53464,39.035,9.76893,39.032,9.16305,39.3053,9.37941,39.1152,9.31871,39.2134,9.44602,39.0636,9.68305,39.2473,9.80393,39.2367,9.63067,39.3005,14.8388,39.217,14.3248,39.3277,13.9939,38.879,13.7767,39.1484,13.6935,39.1694,13.7228,39.2337,13.7004,39.2152,14.1237,39.3286,14.7322,38.7682,13.8019
39.7798,9.58751,39.8607,9.54255,39.5733,9.77685,39.5732,9.17012,39.8475,9.38694,39.6554,9.32879,39.7545,9.45292,39.603,9.6903,39.7886,9.80763,39.7774,9.63707,39.8422,14.8842,39.7578,14.3696,39.8705,14.0408,39.4219,13.8214,39.6892,13.7412,39.7104,13.7695,39.7763,13.7463,39.7571,14.1671,39.87,14.7796,39.3101,13.8489
40.3213,9.59345,40.4029,9.55051,40.1115,9.7838,40.1142,9.1783,40.3897,9.39558,40.1955,9.33691,40.2959,9.46094,40.1425,9.69777,40.3295,9.81629,40.318,9.64319,40.384,14.9293,40.2987,14.4151,40.4136,14.0846,39.9646,13.8694,40.23,13.7852,40.2509,13.8153,40.319,13.7922,40.2988,14.2105,40.4117,14.8239,39.8516,13.8969
40.8632,9.60006,40.9451,9.55875,40.6499,9.7894,40.6553,9.18625,40.9318,9.40502,40.7356,9.34357,40.8372,9.46811,40.6815,9.70327,40.8704,9.82634,40.8587,9.6491,40.9262,14.9706,40.8393,14.4615,40.9562,14.1299,40.5071,13.9123,40.7707,13.8314,40.7916,13.861,40.8613,13.8335,40.8407,14.2554,40.9536,14.867,40.393,13.9418
41.405,9.60673,41.4874,9.56566,41.1881,9.7953,41.1965,9.19463,41.4742,9.41101,41.2758,9.34864,41.3783,9.47262,41.2212,9.70921,41.4116,9.83131,41.3993,9.65555,41.4677,15.0139,41.3804,14.5021,41.4992,14.176,41.0498,13.955,41.3116,13.8758,41.3325,13.9043,41.4039,13.8793,41.3826,14.2978,41.495,14.9104,40.935,13.9864
41.9465,9.6125,42.0296,9.57258,41.7263,9.80154,41.7376,9.20187,42.0163,9.41973,41.8159,9.35555,41.92,9.47843,41.7605,9.71334,41.9523,9.83363,41.94,9.6601,42.0099,15.0528,41.9211,14.5446,42.042,14.2169,41.5925,13.9953,41.8524,13.9152,41.873,13.9441,41.9462,13.9188,41.9244,14.3379,42.0371,14.9504,41.4762,14.0285
42.4885,9.61606,42.5718,9.57731,42.2648,9.80662,42.2786,9.20607,42.5586,9.42504,42.3563,9.36185,42.4609,9.48276,42.2998,9.71562,42.4934,9.83522,42.4808,9.66382,42.5514,15.0893,42.4618,14.5847,42.5847,14.2573,42.1351,14.0362,42.393,13.9543,42.4138,13.984,42.4887,13.9573,42.4661,14.377,42.5785,14.9882,42.0181,14.0686
43.0302,9.6191,43.1143,9.58033,42.8028,9.81048,42.82,9.20998,43.101,9.43066,42.8963,9.36572,43.0024,9.4888,42.8393,9.71913,43.0344,9.83921,43.0213,9.66899,43.0934,15.126,43.0028,14.6235,43.1278,14.2959,42.6777,14.0761,42.9341,13.9941,42.9544,14.0235,43.0315,13.9934,43.0082,14.4142,43.1203,15.0287,42.5596,14.1074
43.572,9.62166,43.6563,9.58479,43.3414,9.81413,43.3609,9.21514,43.6429,9.43514,43.4365,9.36857,43.5436,9.49063,43.3785,9.72112,43.5752,9.8442,43.5621,9.67304,43.6353,15.1626,43.5432,14.6611,43.6704,14.3356,43.2205,14.113,43.4745,14.0331,43.495,14.0628,43.5737,14.0311,43.5498,14.4517,43.662,15.0679,43.1012,14.1448
44.1139,9.62462,44.1988,9.58783,43.8794,9.81739,43.9023,9.21869,44.1854,9.44081,43.9768,9.37138,44.0848,9.49221,43.918,9.72462,44.1164,9.84576,44.1028,9.67435,44.177,15.1976,44.0842,14.6995,44.2135,14.3743,43.763,14.1488,44.0156,14.0696,44.0358,14.1019,44.1165,14.0676,44.092,14.4868,44.2035,15.1023,43.6428,14.1852
44.6556,9.62899,44.741,9.59106,44.4176,9.81945,44.4434,9.22236,44.7275,9.44789,44.5166,9.37553,44.6261,9.49526,44.4573,9.72744,44.6572,9.84681,44.6431,9.67635,44.7192,15.2337,44.625,14.7348,44.7564,14.4128,44.3059,14.1842,44.5562,14.1054,44.5764,14.139,44.659,14.1043,44.6337,14.5212,44.7454,15.1369,44.1842,14.2208
45.1974,9.62936,45.283,9.5938,44.9561,9.82145,44.9842,9.22455,45.2696,9.45099,45.0572,9.37789,45.1673,9.49728,44.9968,9.727,45.1983,9.84683,45.1843,9.67796,45.2608,15.2675,45.1659,14.7698,45.2991,14.4477,44.8485,14.2221,45.0968,14.1396,45.1172,14.174,45.2014,14.1375,45.1753,14.555,45.2869,15.1724,44.726,14.2554
45.739,9.63032,45.8256,9.59684,45.4942,9.82356,45.5257,9.22819,45.8121,9.45441,45.5972,9.37713,45.7089,9.50019,45.5361,9.72734,45.739,9.84833,45.7246,9.68108,45.8027,15.2997,45.7065,14.8058,45.8422,14.4808,45.3909,14.2566,45.6379,14.1739,45.6576,14.2084,45.744,14.1704,45.7175,14.5912,45.8288,15.2052,45.2675,14.2912
46.2809,9.63258,46.3676,9.59784,46.0327,9.8255,46.0666,9.22989,46.3541,9.45684,46.1374,9.38104,46.2499,9.50198,46.0756,9.73002,46.2802,9.84915,46.2654,9.68267,46.3445,15.3305,46.2472,14.8401,46.3848,14.5152,45.9339,14.2899,46.1784,14.2066,46.1985,14.2438,46.2863,14.2034,46.2591,14.6222,46.3704,15.2388,45.8092,14.324
46.8227,9.63167,46.9101,9.59753,46.5709,9.82808,46.6079,9.23263,46.8966,9.45991,46.6777,9.38393,46.7914,9.50337,46.615,9.73021,46.8211,9.84765,46.8061,9.68253,46.8864,15.3618,46.7883,14.8714,46.9279,14.5469,46.4763,14.3226,46.7194,14.2386,46.7391,14.2766,46.8291,14.2369,46.8012,14.6555,46.9121,15.2718,46.3508,14.3559
47.3643,9.63187,47.4523,9.59924,47.1092,9.82909,47.1491,9.23346,47.4387,9.46279,47.2175,9.38604,47.3325,9.50583,47.1541,9.73088,47.3619,9.84697,47.3465,9.6825,47.4282,15.391,47.3288,14.9056,47.4705,14.5793,47.0192,14.3551,47.2602,14.2734,47.2798,14.3117,47.3713,14.2694,47.343,14.6864,47.4539,15.3038,46.8923,14.3889
47.9065,9.63203,47.9946,9.60077,47.6472,9.82724,47.6901,9.23422,47.9811,9.4658,47.7579,9.3865,47.8737,9.50776,47.6937,9.7326,47.9033,9.84884,47.8873,9.68313,47.9701,15.4211,47.8698,14.939,48.0137,14.611,47.5618,14.3878,47.8009,14.305,47.8207,14.3432,47.9142,14.3018,47.8849,14.7174,47.9953,15.3366,47.4341,14.4242
48.4479,9.63117,48.5368,9.60072,48.1857,9.82709,48.2313,9.2354,48.5232,9.4675,48.298,9.38659,48.4152,9.50848,48.2332,9.73255,48.444,9.84758,48.4279,9.68366,48.5121,15.4513,48.4106,14.9713,48.5564,14.6413,48.1045,14.419,48.3417,14.3361,48.3611,14.375,48.4565,14.3333,48.4267,14.7481,48.5372,15.3677,47.9754,14.4543
48.9901,9.63199,49.0791,9.60194,48.724,9.82649,48.7724,9.23755,49.0655,9.47035,48.8382,9.38726,48.9564,9.50901,48.7722,9.73142,48.985,9.84677,48.9687,9.68293,49.0539,15.4805,48.9511,15.0018,49.099,14.6736,48.6471,14.449,48.8824,14.3624,48.9019,14.4049,48.9988,14.3639,48.9686,14.7781,49.0788,15.3965,48.5171,14.4858
49.5316,9.63071,49.6213,9.60121,49.262,9.8268,49.3136,9.23706,49.6077,9.47123,49.3784,9.38801,49.4978,9.51105,49.3119,9.72997,49.5259,9.84407,49.5093,9.68191,49.5958,15.5062,49.4922,15.0316,49.6423,14.7007,49.1898,14.4788,49.4232,14.3919,49.4425,14.4336,49.5417,14.3938,49.5104,14.8073,49.6205,15.4249,49.0587,14.5146
50.0733,9.6299,50.1637,9.60041,49.8007,9.82452,49.8548,9.23697,50.15,9.47232,49.9185,9.38828,50.0391,9.51128,49.8511,9.72827,50.0668,9.84171,50.05,9.68038,50.1376,15.5331,50.0327,15.0599,50.1848,14.7285,49.7324,14.511,49.9639,14.4202,49.9831,14.4605,50.0838,14.4217,50.0524,14.8336,50.1624,15.455,49.6002,14.542
50.6152,9.62644,50.7059,9.60003,50.3388,9.82309,50.3959,9.23545,50.69226,9.47263,50.4587,9.38797,50.5802,9.50975,50.3905,9.7255,50.6079,9.84002,50.5906,9.67771,50.6792,15.5549,50.5735,15.0865,50.7278,14.7545,50.2752,14.538,50.5048,14.4473,50.5239,14.4865,50.6266,14.4478,50.5942,14.8589,50.7039,15.4808,50.1421,14.5696
51.157,9.62275,51.2481,9.59832,50.877,9.82117,50.937,9.2349,51.2343,9.47356,50.9987,9.38731,51.1216,9.50904,50.9299,9.72301,51.1488,9.83654,51.1311,9.67667,51.2215,15.5783,51.1144,15.1137,51.2708,14.7803,50.8178,14.5653,51.0457,14.4736,51.0645,14.5143,51.1692,14.4733,51.1361,14.8832,51.2458,15.5093,50.6835,14.5959
51.6988,9.62042,51.7902,9.59563,51.4155,9.81931,51.478,9.23273,51.7765,9.47478,51.539,9.38502,51.6627,9.50706,51.4692,9.72241,51.6899,9.83354,51.672,9.67269,51.7631,15.5994,51.655,15.1379,51.8134,14.8057,51.3604,14.5924,51.5863,14.5002,51.6053,14.5404,51.7114,14.5014,51.6777,14.9086,51.7873,15.533,51.2253,14.6225
52.2404,9.61651,52.3328,9.59414,51.9534,9.81519,52.0194,9.23043,52.319,9.47416,52.0791,9.38086,52.2043,9.50567,52.0087,9.71786,52.2308,9.83082,52.2125,9.66826,52.305,15.6219,52.1961,15.1634,52.3565,14.8285,51.903,14.6215,52.1274,14.5262,52.1459,14.566,52.2541,14.5261,52.2199,14.9316,52.3291,15.5569,51.7667,14.6461
52.7823,9.61237,52.8747,9.59186,52.492,9.81174,52.5603,9.22725,52.8609,9.47596,52.6192,9.37836,52.7453,9.50315,52.548,9.71613,52.7718,9.82719,52.75326,9.66508,52.8469,15.6399,52.7368,15.1864,52.8993,14.8514,52.4459,14.6498,52.6677,14.5497,52.6867,14.5887,52.7966,14.5488,52.7614,14.9523,52.8707,15.579,52.3083,14.6718
53.324,9.60849,53.4171,9.58926,53.0302,9.80917,53.1015,9.22449,53.4034,9.47641,53.1597,9.37694,53.2869,9.50056,53.0875,9.71296,53.3128,9.82082,53.2941,9.66159,53.3885,15.6579,53.2777,15.2086,53.442,14.8724,52.9883,14.6764,53.2088,14.5732,53.2273,14.6097,53.339,14.5698,53.3034,14.9746,53.4125,15.6025,52.8499,14.6947
53.8658,9.60285,53.9595,9.58585,53.5685,9.80769,53.6429,9.22246,53.9456,9.4749,53.6995,9.37227,53.828,9.4977,53.6266,9.70724,53.8534,9.81581,53.8344,9.65894,53.9305,15.6762,53.8181,15.2312,53.985,14.8934,53.531,14.7018,53.7495,14.5956,53.7677,14.634,53.8816,14.5924,53.8454,14.9949,53.9542,15.624,53.3916,14.7146
54.4078,9.59691,54.5016,9.58275,54.1067,9.80451,54.1837,9.2179,54.4877,9.47372,54.24,9.37145,54.369,9.49447,54.1661,9.70323,54.395,9.8108,54.3754,9.65493,54.4723,15.6935,54.3592,15.254,54.5278,14.9142,54.0739,14.7246,54.2904,14.6167,54.309,14.655,54.4241,14.6124,54.3871,15.0145,54.4956,15.6445,53.9332,14.7363
54.9492,9.59217,55.044,9.57887,54.6449,9.80111,54.725,9.21549,55.0301,9.47298,54.78,9.36926,54.9107,9.49136,54.7055,9.69858,54.9356,9.80429,54.9159,9.64771,55.0143,15.7111,54.8999,15.2742,55.0709,14.936,54.6163,14.7467,54.8311,14.6396,54.8492,14.6754,54.9667,14.6337,54.9291,15.0323,55.0377,15.6682,54.4746,14.7573
55.4913,9.58638,55.5861,9.57409,55.1833,9.79772,55.266,9.21043,55.5722,9.4713,55.3201,9.36398,55.4517,9.48688,55.2447,9.69492,55.4767,9.80142,55.4566,9.64345,55.5562,15.7262,55.4407,15.2923,55.6135,14.9552,55.1591,14.7684,55.3717,14.6608,55.3901,14.696,55.5091,14.6527,55.4708,15.0503,55.5792,15.6863,55.0164,14.7795
56.033,9.58049,56.1284,9.56958,55.7214,9.79441,55.8072,9.20562,56.1146,9.47014,55.8603,9.36142,55.9931,9.48162,55.7845,9.69147,56.0177,9.79593,55.9973,9.63914,56.0979,15.7435,55.9816,15.3101,56.1567,14.9748,55.7017,14.7842,55.9127,14.6801,55.9308,14.7142,56.0519,14.6702,56.0127,15.0686,56.1207,15.7052,55.558,14.8
56.5745,9.57406,56.6706,9.56587,56.2599,9.79093,56.3483,9.20348,56.6567,9.46899,56.4006,9.35636,56.5346,9.47815,56.3236,9.6855,56.5583,9.78903,56.538,9.63315,56.6398,15.7589,56.5222,15.3287,56.6993,14.9951,56.2443,14.8043,56.4533,14.7007,56.4712,14.7319,56.5941,14.6896,56.5546,15.0869,56.6628,15.724,56.0993,14.8186
57.1166,9.5697,57.2129,9.56161,56.7981,9.78583,56.8894,9.19926,57.1991,9.46759,56.9407,9.35115,57.0756,9.47319,56.8631,9.68098,57.0996,9.78396,57.0787,9.62661,57.1815,15.7755,57.0631,15.3473,57.2422,15.0134,56.787,14.8221,56.9942,14.719,57.0122,14.7492,57.1367,14.7082,57.0965,15.1058,57.2041,15.7421,56.6413,14.8378
57.6582,9.56175,57.7553,9.55546,57.3363,9.78223,57.4307,9.1948,57.7413,9.46422,57.4808,9.3482,57.617,9.47045,57.4025,9.67441,57.6404,9.77717,57.6192,9.62105,57.7236,15.7882,57.6039,15.3636,57.7852,15.0293,57.3297,14.8399,57.5351,14.7356,57.5526,14.764,57.6793,14.7264,57.6384,15.12102,57.746,15.7587,57.1826,14.8555
58.2001,9.55378,58.2974,9.54897,57.8748,9.7776,57.9718,9.18859,58.2835,9.46135,58.0211,9.34527,58.1582,9.46592,57.9415,9.66715,58.1815,9.76881,58.1601,9.61441,58.2653,15.8004,58.1444,15.3769,58.3279,15.0449,57.8724,14.8546,58.0756,14.7522,58.0935,14.7797,58.2218,14.7431,58.1801,15.1358,58.2877,15.7762,57.7243,14.8734
58.7419,9.54612,58.8399,9.54099,58.4128,9.77243,58.5131,9.18361,58.8259,9.45837,58.5611,9.33882,58.6994,9.45897,58.4813,9.66064,58.7226,9.76209,58.7005,9.60863,58.8071,15.812,58.6855,15.3911,58.8709,15.0606,58.415,14.8686,58.6167,14.7679,58.6343,14.7945,58.7644,14.7611,58.7222,15.1491,58.8292,15.7914,58.266,14.8899
59.2837,9.53758,59.382,9.53475,58.9511,9.76597,59.054,9.17794,59.3679,9.45438,59.1012,9.33257,59.2408,9.45353,59.0205,9.65372,59.2634,9.75394,59.2412,9.60097,59.3493,15.8242,59.2262,15.4045,59.4137,15.0771,58.9578,14.8815,59.1572,14.7841,59.1748,14.8089,59.3067,14.7781,59.2639,15.164,59.371,15.8067,58.8072,14.9044
59.8254,9.52963,59.9242,9.52977,59.4895,9.76037,59.5951,9.17105,59.9102,9.45149,59.6417,9.32659,59.782,9.4463,59.5599,9.64934,59.8044,9.74753,59.7821,9.5916,59.8908,15.8347,59.767,15.4133,59.9565,15.0922,59.5003,14.8937,59.698,14.7981,59.7154,14.8202,59.8493,14.7942,59.8057,15.1776,59.9126,15.8192,59.3491,14.9216
60.3672,9.52294,60.4668,9.52243,60.0276,9.75371,60.1366,9.16607,60.4526,9.4486,60.1815,9.32025,60.3235,9.43918,60.0992,9.64064,60.3454,9.73931,60.3224,9.58447,60.433,15.8463,60.3078,15.4217,60.4994,15.1066,60.043,14.9063,60.239,14.8131,60.2562,14.8336,60.3918,14.8095,60.3479,15.1897,60.4545,15.8312,59.8906,14.935
60.9089,9.51354,61.0086,9.51326,60.5662,9.74646,60.6773,9.16016,60.9945,9.44413,60.7219,9.31425,60.8645,9.4338,60.6386,9.63044,60.8863,9.72911,60.8634,9.57796,60.9745,15.8541,60.8485,15.4243,61.0421,15.1212,60.5859,14.9145,60.7794,14.8246,60.7968,14.8456,60.9342,14.8188,60.8893,15.2002,60.996,15.8435,60.4323,14.9472
61.4509,9.50467,61.5512,9.50619,61.1043,9.74004,61.2188,9.15442,61.537,9.44079,61.2621,9.30712,61.4062,9.42571,61.178,9.62386,61.4272,9.71917,61.404,9.56927,61.5166,15.8619,61.3894,15.419,61.5852,15.1325,61.1281,14.9228,61.3206,14.838,61.3374,14.8559,61.4769,14.8264,61.4315,15.2105,61.5379,15.8535,60.9738,14.9579
61.9926,9.49642,62.0934,9.49746,61.6427,9.73372,61.7598,9.14718,62.0791,9.43439,61.802,9.29851,61.9471,9.41853,61.7172,9.61532,61.9682,9.70876,61.9444,9.55921,62.0584,15.87,61.93,15.395,62.1279,15.1446,61.6712,14.9275,61.8612,14.8476,61.8783,14.8673,62.0193,14.8256,61.9732,15.2166,62.0795,15.8629,61.5155,14.9675
62.5344,9.48617,62.6355,9.4873,62.1807,9.72669,62.3008,9.13838,62.6214,9.42824,62.3424,9.29304,62.4885,9.41153,62.257,9.60624,62.5095,9.69931,62.4853,9.55194,62.6004,15.8766,62.4711,15.2816,62.6709,15.152,62.2137,14.9235,62.4022,14.8559,62.419,14.8763,62.562,14.8025,62.515,15.2238,62.621,15.8687,62.0571,14.9764
63.076,9.47574,63.1778,9.4782,62.7192,9.71927,62.8421,9.13064,63.1636,9.42437,62.8823,9.28461,63.0299,9.40175,62.7961,9.59647,63.0502,9.69066,63.0258,9.54351,63.1422,15.8811,,,63.2137,15.1626,62.7562,14.9099,62.9428,14.8676,62.9595,14.8861,63.1043,13.8489,63.0569,15.2276,63.163,15.8751,62.5985,14.9847
63.618,9.46692,63.72,9.4688,63.2574,9.71092,63.3831,9.12396,63.7058,9.41849,63.4227,9.27426,63.5711,9.39246,63.3355,9.58786,63.5914,9.68069,63.5667,9.53261,63.6838,15.8843,,,63.7564,15.1732,63.299,14.8643,63.4836,14.8735,63.5005,14.8948,,,63.5987,15.231,63.7047,15.8768,63.1403,14.9913
64.1596,9.45782,64.2625,9.45878,63.7958,9.70233,63.9245,9.11446,64.2482,9.4138,63.9628,9.26449,64.1124,9.38438,63.8749,9.57756,64.1321,9.66836,64.1072,9.52346,64.2259,15.8834,,,64.2995,15.1797,63.8416,14.6631,64.0244,14.8777,64.0408,14.8998,,,64.1408,15.2305,64.2463,15.8766,63.6819,14.9888
64.7015,9.44882,64.8046,9.44914,64.3341,9.69567,64.4655,9.1082,64.7903,9.40643,64.5031,9.25477,64.6536,9.37472,64.4141,9.56656,64.6731,9.65826,64.6481,9.51387,64.7676,15.8796,,,64.8421,15.185,,,64.5652,14.8785,64.5817,14.9027,,,64.6825,15.2243,64.788,15.8694,64.2233,14.9791
65.2433,9.43985,65.347,9.44047,64.8721,9.68725,65.0067,9.09909,65.3327,9.40013,65.0432,9.24489,65.195,9.36531,64.9536,9.55857,65.2142,9.6459,65.1885,9.5053,65.3094,15.8603,,,65.3853,15.1888,,,65.106,14.8764,65.1224,14.9043,,,65.22444,15.2108,65.3295,15.837,64.7651,14.9533
65.785,9.42981,65.889,9.42956,65.4106,9.68012,65.5476,9.09196,65.8746,9.39308,65.5833,9.23601,65.7363,9.35867,65.493,9.54663,65.7552,9.63612,65.7292,9.49784,65.8516,15.7715,,,65.928,15.1899,,,65.6467,14.8631,65.6631,14.9016,,,65.7661,15.1807,65.8714,15.7075,65.3065,14.8611
66.3268,9.42056,66.4313,9.41867,65.9488,9.67203,66.0888,9.08435,66.417,9.38596,66.1236,9.22606,66.2774,9.34716,66.0323,9.53523,66.2961,9.62535,66.27,9.48618,,,,,66.4709,15.1871,,,66.1875,14.8067,66.2038,14.8927,,,66.308,15.0763,,,,
66.8685,9.41094,66.9737,9.40705,66.4869,9.66062,66.6301,9.07352,66.9593,9.37739,66.6637,9.21496,66.8189,9.33696,66.5719,9.52628,66.837,9.61245,66.8106,9.47404,,,,,67.0139,15.171,,,,,66.7443,14.8704,,,,,,,,
67.4104,9.40052,67.5158,9.39669,67.0255,9.65141,67.171,9.06451,67.5014,9.3705,67.2038,9.20389,67.3601,9.32791,67.1111,9.51356,67.3781,9.60128,67.3513,9.46363,,,,,67.5565,15.1253,,,,,67.2851,14.7625,,,,,,,,
67.952,9.39036,68.0583,9.38563,67.5635,9.6423,67.7124,9.05704,68.0439,9.36421,67.7441,9.19229,67.9015,9.31605,67.6507,9.50284,67.9189,9.58837,67.8919,9.45118,,,,,,,,,,,,,,,,,,,,
68.4939,9.38004,68.6006,9.37385,68.1019,9.6302,68.2536,9.04718,68.586,9.35463,68.284,9.17966,68.4427,9.30372,68.1897,9.49017,68.4599,9.57428,68.4325,9.43748,,,,,,,,,,,,,,,,,,,,
69.0357,9.36898,69.1426,9.3607,68.6402,9.62029,68.7945,9.03753,69.1282,9.34583,68.8245,9.16574,68.9838,9.29292,68.7294,9.47588,69.0011,9.56166,68.9734,9.42405,,,,,,,,,,,,,,,,,,,,
69.5774,9.35747,69.6852,9.34908,69.1782,9.60896,69.336,9.02684,69.6706,9.33688,69.3644,9.15282,69.5253,9.27932,69.2686,9.46212,69.5417,9.5482,69.5137,9.40957,,,,,,,,,,,,,,,,,,,,
70.1194,9.3457,70.2271,9.33541,69.7167,9.59731,69.8767,9.01386,70.2126,9.32718,69.9046,9.14078,70.0663,9.26495,69.8081,9.45017,70.083,9.53134,70.0546,9.39345,,,,,,,,,,,,,,,,,,,,
70.661,9.33193,70.7696,9.32028,70.2549,9.58624,70.4181,9.00234,70.7551,9.31757,70.4449,9.12665,70.6079,9.25305,70.3475,9.43539,70.6239,9.51572,70.5953,9.3779,,,,,,,,,,,,,,,,,,,,
71.2027,9.31949,71.3118,9.30503,70.7934,9.57292,70.9592,8.99182,71.2972,9.30704,70.9849,9.10966,71.1491,9.23636,70.8866,9.42208,71.1646,9.49909,71.1358,9.35839,,,,,,,,,,,,,,,,,,,,
71.7448,9.3071,71.8541,9.2925,71.3315,9.55868,71.5004,8.97994,71.8395,9.29814,71.5252,9.09329,71.6903,9.21948,71.4263,9.4078,71.7058,9.48171,71.6766,9.33871,,,,,,,,,,,,,,,,,,,,
72.2862,9.29365,72.3963,9.27742,71.8699,9.54463,72.0415,8.96677,72.3816,9.28899,72.0652,9.07631,72.2318,9.20559,71.9655,9.39129,72.2466,9.46291,72.2171,9.31845,,,,,,,,,,,,,,,,,,,,
72.8282,9.27885,72.9384,9.2645,72.4082,9.53058,72.5824,8.95566,72.9238,9.27961,72.6055,9.06165,72.7729,9.19021,72.5048,9.37612,72.7878,9.44286,72.7579,9.2982,,,,,,,,,,,,,,,,,,,,
73.3699,9.26251,73.4809,9.24742,72.9463,9.51952,73.1238,8.94129,73.4662,9.26748,73.1456,9.04824,73.3142,9.17374,73.0445,9.36324,73.3287,9.41837,73.2984,9.27635,,,,,,,,,,,,,,,,,,,,
73.9116,9.24654,74.0229,9.23259,73.4845,9.50553,73.6647,8.92811,74.0082,9.25689,73.6858,9.02908,73.8557,9.15815,73.5836,9.34707,73.8697,9.39827,73.8393,9.24925,,,,,,,,,,,,,,,,,,,,
74.4534,9.22959,74.5654,9.21794,74.023,9.48981,74.2061,8.91378,74.5508,9.24588,74.2259,9.01005,74.3967,9.1406,74.1231,9.33213,74.4104,9.37682,74.3798,9.21995,,,,,,,,,,,,,,,,,,,,
74.9952,9.21128,75.1077,9.20268,74.5612,9.47511,74.7472,8.8987,75.0929,9.23474,74.766,8.99201,74.9381,9.12255,74.6625,9.31729,74.9515,9.34613,74.9204,9.18589,,,,,,,,,,,,,,,,,,,,
75.5371,9.19251,75.6497,9.18537,75.0996,9.46048,75.2881,8.8838,75.635,9.22432,75.3064,8.97481,75.4794,9.10469,75.2017,9.29988,75.4926,9.30488,75.4614,9.14348,,,,,,,,,,,,,,,,,,,,
76.0788,9.17388,76.1922,9.16812,75.6376,9.44294,75.8296,8.8695,76.1774,9.21282,75.8465,8.95559,76.0208,9.08488,75.741,9.28098,76.0336,9.24231,76.0019,9.08047,,,,,,,,,,,,,,,,,,,,
76.6206,9.153,76.7343,9.15158,76.176,9.42508,76.3704,8.85322,76.7194,9.1985,76.3865,8.93415,76.5617,9.06624,76.2804,9.25909,76.5746,9.08289,76.5425,8.84704,,,,,,,,,,,,,,,,,,,,
77.1622,9.1294,77.2764,9.13392,76.7143,9.40805,76.9115,8.83652,77.2617,9.18428,76.9271,8.91336,77.1033,9.04691,76.8201,9.23527,,,,,,,,,,,,,,,,,,,,,,,,
77.704,9.10472,77.8189,9.11563,77.2526,9.39253,77.4529,8.81969,77.804,9.16925,77.4669,8.89238,77.6446,9.02694,77.3592,9.20579,,,,,,,,,,,,,,,,,,,,,,,,
78.246,9.07899,78.361,9.09573,77.7908,9.3727,77.9938,8.80207,78.3462,9.15531,78.0072,8.87106,78.1857,9.00354,77.8988,9.15395,,,,,,,,,,,,,,,,,,,,,,,,
78.7875,9.05231,78.9035,9.07457,78.3292,9.35126,78.5352,8.78248,78.8885,9.1391,78.5473,8.84757,78.7272,8.98003,78.438,8.95734,,,,,,,,,,,,,,,,,,,,,,,,
79.3295,9.02748,79.4457,9.05441,78.8675,9.3323,79.0762,8.7631,79.4307,9.12246,79.0873,8.82143,79.2682,8.95839,,,,,,,,,,,,,,,,,,,,,,,,,,
79.8714,8.99913,79.9881,9.03461,79.4055,9.31288,79.6175,8.74424,79.9732,9.10713,79.6276,8.79622,79.8096,8.93608,,,,,,,,,,,,,,,,,,,,,,,,,,
80.413,8.97104,80.5301,9.01334,79.9441,9.29188,80.1584,8.72469,80.515,9.08777,80.1678,8.77363,80.351,8.91166,,,,,,,,,,,,,,,,,,,,,,,,,,
80.9549,8.94455,81.0725,8.991,80.4822,9.27002,80.6997,8.70674,81.0576,9.07097,80.7081,8.7493,80.8921,8.88649,,,,,,,,,,,,,,,,,,,,,,,,,,
81.4963,8.9154,81.6147,8.97044,81.0204,9.24981,81.2407,8.68468,81.5996,9.05105,81.2481,8.72584,81.4336,8.86407,,,,,,,,,,,,,,,,,,,,,,,,,,
82.0385,8.88967,82.157,8.95136,81.559,9.22926,81.782,8.66297,82.1419,9.03159,81.7884,8.69999,81.9748,8.83882,,,,,,,,,,,,,,,,,,,,,,,,,,
82.5802,8.86475,82.6994,8.93237,82.097,9.20761,82.3232,8.64243,82.6844,9.01491,82.3283,8.67328,82.5161,8.81474,,,,,,,,,,,,,,,,,,,,,,,,,,
83.1221,8.83958,83.2414,8.91112,82.6354,9.18652,82.8641,8.62135,83.2262,8.99291,82.8684,8.64701,83.0573,8.79141,,,,,,,,,,,,,,,,,,,,,,,,,,
83.6637,8.81586,83.7838,8.89346,83.1737,9.16495,83.4053,8.60103,83.7687,8.97479,83.4088,8.62057,83.5986,8.76611,,,,,,,,,,,,,,,,,,,,,,,,,,
84.2054,8.79185,84.3261,8.87453,83.7118,9.14492,83.9466,8.58155,84.3109,8.95542,83.9487,8.58658,84.1401,8.74622,,,,,,,,,,,,,,,,,,,,,,,,,,
84.7474,8.7483,84.8681,8.85761,84.2503,9.12827,84.4874,8.56237,84.853,8.93322,84.4892,8.52641,84.6811,8.72808,,,,,,,,,,,,,,,,,,,,,,,,,,
85.2889,8.24066,85.4107,8.84282,84.7883,9.11046,85.0289,8.54316,85.3955,8.91386,85.0293,8.2835,85.2227,8.70651,,,,,,,,,,,,,,,,,,,,,,,,,,
,,85.9528,8.82877,85.3268,9.09109,85.5699,8.52709,85.9375,8.89329,,,85.7636,8.68356,,,,,,,,,,,,,,,,,,,,,,,,,,
,,86.4951,8.81592,85.8649,9.07432,86.111,8.51117,86.4798,8.8725,,,86.305,8.63819,,,,,,,,,,,,,,,,,,,,,,,,,,
,,87.0374,8.81104,86.4033,9.05996,86.6522,8.49894,87.0221,8.85376,,,86.8463,8.34634,,,,,,,,,,,,,,,,,,,,,,,,,,
,,87.5795,8.80559,86.9415,9.04895,87.1932,8.48596,87.5642,8.8349,,,,,,,,,,,,,,,,,,,,,,,,,,,,,,
,,88.1219,8.80372,87.4797,9.039,87.7345,8.4757,88.1065,8.81451,,,,,,,,,,,,,,,,,,,,,,,,,,,,,,
,,88.664,8.80416,88.0183,9.02877,88.2754,8.46065,88.6486,8.79413,,,,,,,,,,,,,,,,,,,,,,,,,,,,,,
,,89.2065,8.80799,88.5563,9.02184,88.8168,8.41482,89.1912,8.77477,,,,,,,,,,,,,,,,,,,,,,,,,,,,,,
,,89.7486,8.81191,89.0947,9.01717,89.3579,8.01293,89.7331,8.75465,,,,,,,,,,,,,,,,,,,,,,,,,,,,,,
,,90.291,8.82054,89.6329,9.00981,,,90.2757,8.73675,,,,,,,,,,,,,,,,,,,,,,,,,,,,,,
,,90.8333,8.83048,90.171,8.99756,,,90.8178,8.71127,,,,,,,,,,,,,,,,,,,,,,,,,,,,,,
,,91.3754,8.83968,90.7095,8.97556,,,91.3599,8.6552,,,,,,,,,,,,,,,,,,,,,,,,,,,,,,
,,91.9178,8.85207,91.2476,8.90984,,,,,,,,,,,,,,,,,,,,,,,,,,,,,,,,,,
,,92.4601,8.86514,,,,,,,,,,,,,,,,,,,,,,,,,,,,,,,,,,,,
,,93.0021,8.87488,,,,,,,,,,,,,,,,,,,,,,,,,,,,,,,,,,,,
,,93.5446,8.88634,,,,,,,,,,,,,,,,,,,,,,,,,,,,,,,,,,,,
,,94.0867,8.8976,,,,,,,,,,,,,,,,,,,,,,,,,,,,,,,,,,,,
,,94.6291,8.90541,,,,,,,,,,,,,,,,,,,,,,,,,,,,,,,,,,,,
,,95.1712,8.91775,,,,,,,,,,,,,,,,,,,,,,,,,,,,,,,,,,,,
,,95.7136,8.92866,,,,,,,,,,,,,,,,,,,,,,,,,,,,,,,,,,,,
,,96.2558,8.93758,,,,,,,,,,,,,,,,,,,,,,,,,,,,,,,,,,,,
,,96.7981,8.94577,,,,,,,,,,,,,,,,,,,,,,,,,,,,,,,,,,,,
,,97.3404,8.95182,,,,,,,,,,,,,,,,,,,,,,,,,,,,,,,,,,,,
,,97.8824,8.96012,,,,,,,,,,,,,,,,,,,,,,,,,,,,,,,,,,,,
,,98.4249,8.96506,,,,,,,,,,,,,,,,,,,,,,,,,,,,,,,,,,,,
,,98.9671,8.97092,,,,,,,,,,,,,,,,,,,,,,,,,,,,,,,,,,,,
,,99.5092,8.97525,,,,,,,,,,,,,,,,,,,,,,,,,,,,,,,,,,,,
,,100.052,8.976,,,,,,,,,,,,,,,,,,,,,,,,,,,,,,,,,,,,
,,100.594,8.97614,,,,,,,,,,,,,,,,,,,,,,,,,,,,,,,,,,,,
,,101.136,8.97086,,,,,,,,,,,,,,,,,,,,,,,,,,,,,,,,,,,,
,,101.679,8.95973,,,,,,,,,,,,,,,,,,,,,,,,,,,,,,,,,,,,
,,102.22,8.93821,,,,,,,,,,,,,,,,,,,,,,,,,,,,,,,,,,,,
,,102.763,8.88509,,,,,,,,,,,,,,,,,,,,,,,,,,,,,,,,,,,,
,,103.277,8.50831,,,,,,,,,,,,,,,,,,,,,,,,,,,,,,,,,,,,